#MeasParameter
&HWS=C:\RAYFLEX\PTS.hws.HWS
&Sample=
&Material=
&Operator=USER_1
&Anode=Cr	&Filter=V	&kV=40	&mA=40
&Detector=ScintCount

#TextureParameter
&H=2	&K=0	&L=0
&Mode=REFL
&Raster=CIRCULAR
&AlphaStart=0.000	&AlphaEnd=70.000	&AlphaStep=3.500
&BetaStart=0.000	&BetaEnd=360.000	&BetaStep=3.600
&2Theta=67.000	&Window=0.000	&Step=0.000
&Time=10.0	&Counts=0
&BGLeft=65.000	&BGRight=0.000	&BGTime=10.0	&BGCounts=0

#Values
&NoValues=2121
   0.000	   0.000	   270.600	    36.800
   0.000	   3.600	   280.000	    36.800
   0.000	   7.200	   290.200	    36.800
   0.000	  10.800	   279.100	    36.800
   0.000	  14.400	   281.200	    36.800
   0.000	  18.000	   269.900	    36.800
   0.000	  21.600	   275.100	    36.800
   0.000	  25.200	   286.900	    36.800
   0.000	  28.800	   286.700	    36.800
   0.000	  32.400	   277.400	    36.800
   0.000	  36.000	   279.200	    36.800
   0.000	  39.600	   273.400	    36.800
   0.000	  43.200	   286.900	    36.800
   0.000	  46.800	   285.400	    36.800
   0.000	  50.400	   276.400	    36.800
   0.000	  54.000	   268.300	    36.800
   0.000	  57.600	   274.600	    36.800
   0.000	  61.200	   269.400	    36.800
   0.000	  64.800	   275.700	    36.800
   0.000	  68.400	   274.600	    36.800
   0.000	  72.000	   266.000	    36.800
   0.000	  75.600	   270.300	    36.800
   0.000	  79.200	   259.900	    36.800
   0.000	  82.800	   252.700	    36.800
   0.000	  86.400	   262.800	    36.800
   0.000	  90.000	   252.500	    36.800
   0.000	  93.600	   262.100	    36.800
   0.000	  97.200	   251.100	    36.800
   0.000	 100.800	   252.600	    36.800
   0.000	 104.400	   253.100	    36.800
   0.000	 108.000	   249.500	    36.800
   0.000	 111.600	   259.100	    36.800
   0.000	 115.200	   260.200	    36.800
   0.000	 118.800	   244.900	    36.800
   0.000	 122.400	   246.700	    36.800
   0.000	 126.000	   252.200	    36.800
   0.000	 129.600	   246.100	    36.800
   0.000	 133.200	   249.300	    36.800
   0.000	 136.800	   251.300	    36.800
   0.000	 140.400	   244.200	    36.800
   0.000	 144.000	   243.300	    36.800
   0.000	 147.600	   249.200	    36.800
   0.000	 151.200	   245.000	    36.800
   0.000	 154.800	   246.700	    36.800
   0.000	 158.400	   242.100	    36.800
   0.000	 162.000	   232.600	    36.800
   0.000	 165.600	   244.400	    36.800
   0.000	 169.200	   247.700	    36.800
   0.000	 172.800	   246.400	    36.800
   0.000	 176.400	   243.200	    36.800
   0.000	 180.000	   236.300	    36.800
   0.000	 183.600	   249.000	    36.800
   0.000	 187.200	   244.600	    36.800
   0.000	 190.800	   238.000	    36.800
   0.000	 194.400	   242.800	    36.800
   0.000	 198.000	   247.300	    36.800
   0.000	 201.600	   246.200	    36.800
   0.000	 205.200	   244.000	    36.800
   0.000	 208.800	   243.600	    36.800
   0.000	 212.400	   255.600	    36.800
   0.000	 216.000	   241.800	    36.800
   0.000	 219.600	   251.600	    36.800
   0.000	 223.200	   244.400	    36.800
   0.000	 226.800	   242.700	    36.800
   0.000	 230.400	   246.900	    36.800
   0.000	 234.000	   253.300	    36.800
   0.000	 237.600	   250.000	    36.800
   0.000	 241.200	   255.000	    36.800
   0.000	 244.800	   252.400	    36.800
   0.000	 248.400	   255.000	    36.800
   0.000	 252.000	   254.800	    36.800
   0.000	 255.600	   254.100	    36.800
   0.000	 259.200	   254.600	    36.800
   0.000	 262.800	   253.300	    36.800
   0.000	 266.400	   256.300	    36.800
   0.000	 270.000	   258.100	    36.800
   0.000	 273.600	   261.200	    36.800
   0.000	 277.200	   259.500	    36.800
   0.000	 280.800	   266.200	    36.800
   0.000	 284.400	   260.200	    36.800
   0.000	 288.000	   263.200	    36.800
   0.000	 291.600	   260.200	    36.800
   0.000	 295.200	   265.000	    36.800
   0.000	 298.800	   259.800	    36.800
   0.000	 302.400	   264.800	    36.800
   0.000	 306.000	   271.600	    36.800
   0.000	 309.600	   278.800	    36.800
   0.000	 313.200	   264.300	    36.800
   0.000	 316.800	   275.200	    36.800
   0.000	 320.400	   268.000	    36.800
   0.000	 324.000	   270.300	    36.800
   0.000	 327.600	   274.300	    36.800
   0.000	 331.200	   279.000	    36.800
   0.000	 334.800	   287.500	    36.800
   0.000	 338.400	   286.000	    36.800
   0.000	 342.000	   282.700	    36.800
   0.000	 345.600	   276.300	    36.800
   0.000	 349.200	   273.800	    36.800
   0.000	 352.800	   278.600	    36.800
   0.000	 356.400	   285.000	    36.800
   0.000	 360.000	   278.000	    36.800
   3.500	   0.000	   282.300	    38.300
   3.500	   3.600	   274.700	    38.300
   3.500	   7.200	   270.000	    38.300
   3.500	  10.800	   262.100	    38.300
   3.500	  14.400	   263.800	    38.300
   3.500	  18.000	   267.300	    38.300
   3.500	  21.600	   261.400	    38.300
   3.500	  25.200	   258.200	    38.300
   3.500	  28.800	   263.600	    38.300
   3.500	  32.400	   258.900	    38.300
   3.500	  36.000	   252.600	    38.300
   3.500	  39.600	   253.500	    38.300
   3.500	  43.200	   257.200	    38.300
   3.500	  46.800	   254.100	    38.300
   3.500	  50.400	   255.000	    38.300
   3.500	  54.000	   241.400	    38.300
   3.500	  57.600	   249.100	    38.300
   3.500	  61.200	   245.900	    38.300
   3.500	  64.800	   240.500	    38.300
   3.500	  68.400	   234.600	    38.300
   3.500	  72.000	   241.700	    38.300
   3.500	  75.600	   236.200	    38.300
   3.500	  79.200	   244.200	    38.300
   3.500	  82.800	   240.500	    38.300
   3.500	  86.400	   237.100	    38.300
   3.500	  90.000	   241.600	    38.300
   3.500	  93.600	   238.300	    38.300
   3.500	  97.200	   237.500	    38.300
   3.500	 100.800	   231.400	    38.300
   3.500	 104.400	   229.400	    38.300
   3.500	 108.000	   225.200	    38.300
   3.500	 111.600	   212.900	    38.300
   3.500	 115.200	   226.600	    38.300
   3.500	 118.800	   221.000	    38.300
   3.500	 122.400	   223.800	    38.300
   3.500	 126.000	   217.500	    38.300
   3.500	 129.600	   219.100	    38.300
   3.500	 133.200	   228.300	    38.300
   3.500	 136.800	   222.700	    38.300
   3.500	 140.400	   209.400	    38.300
   3.500	 144.000	   225.700	    38.300
   3.500	 147.600	   211.300	    38.300
   3.500	 151.200	   209.300	    38.300
   3.500	 154.800	   221.700	    38.300
   3.500	 158.400	   223.200	    38.300
   3.500	 162.000	   219.800	    38.300
   3.500	 165.600	   215.200	    38.300
   3.500	 169.200	   222.200	    38.300
   3.500	 172.800	   214.600	    38.300
   3.500	 176.400	   212.700	    38.300
   3.500	 180.000	   229.500	    38.300
   3.500	 183.600	   225.400	    38.300
   3.500	 187.200	   230.100	    38.300
   3.500	 190.800	   222.900	    38.300
   3.500	 194.400	   231.300	    38.300
   3.500	 198.000	   226.000	    38.300
   3.500	 201.600	   228.500	    38.300
   3.500	 205.200	   228.300	    38.300
   3.500	 208.800	   235.400	    38.300
   3.500	 212.400	   233.600	    38.300
   3.500	 216.000	   238.700	    38.300
   3.500	 219.600	   234.300	    38.300
   3.500	 223.200	   246.300	    38.300
   3.500	 226.800	   239.400	    38.300
   3.500	 230.400	   242.300	    38.300
   3.500	 234.000	   241.300	    38.300
   3.500	 237.600	   249.100	    38.300
   3.500	 241.200	   251.100	    38.300
   3.500	 244.800	   256.900	    38.300
   3.500	 248.400	   251.200	    38.300
   3.500	 252.000	   253.900	    38.300
   3.500	 255.600	   260.300	    38.300
   3.500	 259.200	   249.200	    38.300
   3.500	 262.800	   247.700	    38.300
   3.500	 266.400	   265.100	    38.300
   3.500	 270.000	   269.300	    38.300
   3.500	 273.600	   269.100	    38.300
   3.500	 277.200	   267.100	    38.300
   3.500	 280.800	   258.000	    38.300
   3.500	 284.400	   267.400	    38.300
   3.500	 288.000	   271.500	    38.300
   3.500	 291.600	   273.100	    38.300
   3.500	 295.200	   269.300	    38.300
   3.500	 298.800	   271.900	    38.300
   3.500	 302.400	   280.900	    38.300
   3.500	 306.000	   276.900	    38.300
   3.500	 309.600	   279.700	    38.300
   3.500	 313.200	   276.000	    38.300
   3.500	 316.800	   274.200	    38.300
   3.500	 320.400	   277.800	    38.300
   3.500	 324.000	   273.200	    38.300
   3.500	 327.600	   272.000	    38.300
   3.500	 331.200	   274.600	    38.300
   3.500	 334.800	   281.100	    38.300
   3.500	 338.400	   269.900	    38.300
   3.500	 342.000	   277.100	    38.300
   3.500	 345.600	   272.400	    38.300
   3.500	 349.200	   277.400	    38.300
   3.500	 352.800	   274.800	    38.300
   3.500	 356.400	   272.400	    38.300
   3.500	 360.000	   272.500	    38.300
   7.000	   0.000	   239.100	    39.500
   7.000	   3.600	   241.900	    39.500
   7.000	   7.200	   236.600	    39.500
   7.000	  10.800	   239.400	    39.500
   7.000	  14.400	   233.000	    39.500
   7.000	  18.000	   238.700	    39.500
   7.000	  21.600	   221.500	    39.500
   7.000	  25.200	   238.500	    39.500
   7.000	  28.800	   228.500	    39.500
   7.000	  32.400	   227.500	    39.500
   7.000	  36.000	   230.900	    39.500
   7.000	  39.600	   234.700	    39.500
   7.000	  43.200	   226.800	    39.500
   7.000	  46.800	   218.500	    39.500
   7.000	  50.400	   218.400	    39.500
   7.000	  54.000	   212.400	    39.500
   7.000	  57.600	   210.200	    39.500
   7.000	  61.200	   209.600	    39.500
   7.000	  64.800	   211.800	    39.500
   7.000	  68.400	   212.500	    39.500
   7.000	  72.000	   213.600	    39.500
   7.000	  75.600	   198.900	    39.500
   7.000	  79.200	   196.400	    39.500
   7.000	  82.800	   202.100	    39.500
   7.000	  86.400	   198.100	    39.500
   7.000	  90.000	   191.900	    39.500
   7.000	  93.600	   204.100	    39.500
   7.000	  97.200	   200.600	    39.500
   7.000	 100.800	   197.800	    39.500
   7.000	 104.400	   199.200	    39.500
   7.000	 108.000	   194.400	    39.500
   7.000	 111.600	   187.300	    39.500
   7.000	 115.200	   201.100	    39.500
   7.000	 118.800	   187.900	    39.500
   7.000	 122.400	   183.800	    39.500
   7.000	 126.000	   183.900	    39.500
   7.000	 129.600	   194.500	    39.500
   7.000	 133.200	   189.700	    39.500
   7.000	 136.800	   198.700	    39.500
   7.000	 140.400	   190.000	    39.500
   7.000	 144.000	   194.200	    39.500
   7.000	 147.600	   190.400	    39.500
   7.000	 151.200	   180.600	    39.500
   7.000	 154.800	   190.400	    39.500
   7.000	 158.400	   187.700	    39.500
   7.000	 162.000	   187.100	    39.500
   7.000	 165.600	   201.000	    39.500
   7.000	 169.200	   184.300	    39.500
   7.000	 172.800	   195.900	    39.500
   7.000	 176.400	   202.200	    39.500
   7.000	 180.000	   191.600	    39.500
   7.000	 183.600	   201.500	    39.500
   7.000	 187.200	   197.300	    39.500
   7.000	 190.800	   202.400	    39.500
   7.000	 194.400	   198.700	    39.500
   7.000	 198.000	   205.800	    39.500
   7.000	 201.600	   203.200	    39.500
   7.000	 205.200	   202.200	    39.500
   7.000	 208.800	   213.700	    39.500
   7.000	 212.400	   207.900	    39.500
   7.000	 216.000	   203.500	    39.500
   7.000	 219.600	   219.900	    39.500
   7.000	 223.200	   221.600	    39.500
   7.000	 226.800	   212.100	    39.500
   7.000	 230.400	   220.800	    39.500
   7.000	 234.000	   218.500	    39.500
   7.000	 237.600	   222.700	    39.500
   7.000	 241.200	   231.500	    39.500
   7.000	 244.800	   232.200	    39.500
   7.000	 248.400	   226.400	    39.500
   7.000	 252.000	   232.500	    39.500
   7.000	 255.600	   243.000	    39.500
   7.000	 259.200	   245.100	    39.500
   7.000	 262.800	   237.200	    39.500
   7.000	 266.400	   244.300	    39.500
   7.000	 270.000	   249.800	    39.500
   7.000	 273.600	   251.400	    39.500
   7.000	 277.200	   245.600	    39.500
   7.000	 280.800	   259.900	    39.500
   7.000	 284.400	   251.300	    39.500
   7.000	 288.000	   257.800	    39.500
   7.000	 291.600	   256.600	    39.500
   7.000	 295.200	   244.200	    39.500
   7.000	 298.800	   249.600	    39.500
   7.000	 302.400	   254.200	    39.500
   7.000	 306.000	   263.600	    39.500
   7.000	 309.600	   255.400	    39.500
   7.000	 313.200	   253.000	    39.500
   7.000	 316.800	   262.700	    39.500
   7.000	 320.400	   264.900	    39.500
   7.000	 324.000	   263.000	    39.500
   7.000	 327.600	   255.700	    39.500
   7.000	 331.200	   259.200	    39.500
   7.000	 334.800	   265.000	    39.500
   7.000	 338.400	   259.300	    39.500
   7.000	 342.000	   262.400	    39.500
   7.000	 345.600	   249.800	    39.500
   7.000	 349.200	   255.700	    39.500
   7.000	 352.800	   245.900	    39.500
   7.000	 356.400	   246.500	    39.500
   7.000	 360.000	   252.200	    39.500
  10.500	   0.000	   216.300	    33.900
  10.500	   3.600	   200.000	    33.900
  10.500	   7.200	   214.500	    33.900
  10.500	  10.800	   201.300	    33.900
  10.500	  14.400	   199.300	    33.900
  10.500	  18.000	   201.700	    33.900
  10.500	  21.600	   198.800	    33.900
  10.500	  25.200	   199.100	    33.900
  10.500	  28.800	   194.400	    33.900
  10.500	  32.400	   189.400	    33.900
  10.500	  36.000	   198.100	    33.900
  10.500	  39.600	   196.500	    33.900
  10.500	  43.200	   185.600	    33.900
  10.500	  46.800	   192.800	    33.900
  10.500	  50.400	   183.500	    33.900
  10.500	  54.000	   187.400	    33.900
  10.500	  57.600	   187.600	    33.900
  10.500	  61.200	   187.900	    33.900
  10.500	  64.800	   177.400	    33.900
  10.500	  68.400	   181.800	    33.900
  10.500	  72.000	   178.900	    33.900
  10.500	  75.600	   168.800	    33.900
  10.500	  79.200	   160.300	    33.900
  10.500	  82.800	   179.200	    33.900
  10.500	  86.400	   165.500	    33.900
  10.500	  90.000	   172.400	    33.900
  10.500	  93.600	   169.800	    33.900
  10.500	  97.200	   170.600	    33.900
  10.500	 100.800	   167.900	    33.900
  10.500	 104.400	   152.100	    33.900
  10.500	 108.000	   168.800	    33.900
  10.500	 111.600	   157.200	    33.900
  10.500	 115.200	   161.600	    33.900
  10.500	 118.800	   157.700	    33.900
  10.500	 122.400	   160.700	    33.900
  10.500	 126.000	   158.000	    33.900
  10.500	 129.600	   157.500	    33.900
  10.500	 133.200	   163.300	    33.900
  10.500	 136.800	   161.100	    33.900
  10.500	 140.400	   159.500	    33.900
  10.500	 144.000	   154.400	    33.900
  10.500	 147.600	   163.100	    33.900
  10.500	 151.200	   164.600	    33.900
  10.500	 154.800	   162.400	    33.900
  10.500	 158.400	   156.600	    33.900
  10.500	 162.000	   152.500	    33.900
  10.500	 165.600	   163.100	    33.900
  10.500	 169.200	   153.900	    33.900
  10.500	 172.800	   166.200	    33.900
  10.500	 176.400	   163.600	    33.900
  10.500	 180.000	   164.200	    33.900
  10.500	 183.600	   161.200	    33.900
  10.500	 187.200	   161.800	    33.900
  10.500	 190.800	   170.000	    33.900
  10.500	 194.400	   163.900	    33.900
  10.500	 198.000	   172.900	    33.900
  10.500	 201.600	   165.200	    33.900
  10.500	 205.200	   174.400	    33.900
  10.500	 208.800	   177.000	    33.900
  10.500	 212.400	   170.300	    33.900
  10.500	 216.000	   185.600	    33.900
  10.500	 219.600	   182.500	    33.900
  10.500	 223.200	   189.400	    33.900
  10.500	 226.800	   186.100	    33.900
  10.500	 230.400	   192.000	    33.900
  10.500	 234.000	   194.800	    33.900
  10.500	 237.600	   193.900	    33.900
  10.500	 241.200	   199.300	    33.900
  10.500	 244.800	   188.900	    33.900
  10.500	 248.400	   194.600	    33.900
  10.500	 252.000	   197.700	    33.900
  10.500	 255.600	   200.800	    33.900
  10.500	 259.200	   214.800	    33.900
  10.500	 262.800	   211.400	    33.900
  10.500	 266.400	   209.100	    33.900
  10.500	 270.000	   214.300	    33.900
  10.500	 273.600	   212.700	    33.900
  10.500	 277.200	   222.200	    33.900
  10.500	 280.800	   215.300	    33.900
  10.500	 284.400	   216.400	    33.900
  10.500	 288.000	   219.500	    33.900
  10.500	 291.600	   222.700	    33.900
  10.500	 295.200	   223.600	    33.900
  10.500	 298.800	   231.600	    33.900
  10.500	 302.400	   221.400	    33.900
  10.500	 306.000	   225.200	    33.900
  10.500	 309.600	   231.700	    33.900
  10.500	 313.200	   219.400	    33.900
  10.500	 316.800	   220.600	    33.900
  10.500	 320.400	   231.300	    33.900
  10.500	 324.000	   221.600	    33.900
  10.500	 327.600	   218.000	    33.900
  10.500	 331.200	   216.100	    33.900
  10.500	 334.800	   224.900	    33.900
  10.500	 338.400	   223.400	    33.900
  10.500	 342.000	   223.900	    33.900
  10.500	 345.600	   213.400	    33.900
  10.500	 349.200	   216.500	    33.900
  10.500	 352.800	   216.000	    33.900
  10.500	 356.400	   205.700	    33.900
  10.500	 360.000	   208.800	    33.900
  14.000	   0.000	   180.800	    35.400
  14.000	   3.600	   170.700	    35.400
  14.000	   7.200	   174.700	    35.400
  14.000	  10.800	   165.600	    35.400
  14.000	  14.400	   164.000	    35.400
  14.000	  18.000	   163.700	    35.400
  14.000	  21.600	   166.400	    35.400
  14.000	  25.200	   163.800	    35.400
  14.000	  28.800	   167.200	    35.400
  14.000	  32.400	   164.900	    35.400
  14.000	  36.000	   157.100	    35.400
  14.000	  39.600	   156.300	    35.400
  14.000	  43.200	   152.600	    35.400
  14.000	  46.800	   153.100	    35.400
  14.000	  50.400	   155.500	    35.400
  14.000	  54.000	   156.300	    35.400
  14.000	  57.600	   152.000	    35.400
  14.000	  61.200	   149.800	    35.400
  14.000	  64.800	   152.700	    35.400
  14.000	  68.400	   153.000	    35.400
  14.000	  72.000	   145.800	    35.400
  14.000	  75.600	   144.900	    35.400
  14.000	  79.200	   147.400	    35.400
  14.000	  82.800	   146.900	    35.400
  14.000	  86.400	   144.400	    35.400
  14.000	  90.000	   142.600	    35.400
  14.000	  93.600	   134.300	    35.400
  14.000	  97.200	   139.500	    35.400
  14.000	 100.800	   131.200	    35.400
  14.000	 104.400	   138.200	    35.400
  14.000	 108.000	   130.400	    35.400
  14.000	 111.600	   134.500	    35.400
  14.000	 115.200	   128.500	    35.400
  14.000	 118.800	   129.300	    35.400
  14.000	 122.400	   132.000	    35.400
  14.000	 126.000	   131.700	    35.400
  14.000	 129.600	   123.700	    35.400
  14.000	 133.200	   133.300	    35.400
  14.000	 136.800	   134.700	    35.400
  14.000	 140.400	   135.300	    35.400
  14.000	 144.000	   130.400	    35.400
  14.000	 147.600	   133.000	    35.400
  14.000	 151.200	   130.000	    35.400
  14.000	 154.800	   136.000	    35.400
  14.000	 158.400	   130.100	    35.400
  14.000	 162.000	   122.200	    35.400
  14.000	 165.600	   125.500	    35.400
  14.000	 169.200	   130.800	    35.400
  14.000	 172.800	   134.500	    35.400
  14.000	 176.400	   132.300	    35.400
  14.000	 180.000	   134.000	    35.400
  14.000	 183.600	   131.300	    35.400
  14.000	 187.200	   128.300	    35.400
  14.000	 190.800	   138.000	    35.400
  14.000	 194.400	   138.500	    35.400
  14.000	 198.000	   141.500	    35.400
  14.000	 201.600	   137.200	    35.400
  14.000	 205.200	   147.400	    35.400
  14.000	 208.800	   147.800	    35.400
  14.000	 212.400	   145.300	    35.400
  14.000	 216.000	   152.900	    35.400
  14.000	 219.600	   154.700	    35.400
  14.000	 223.200	   152.600	    35.400
  14.000	 226.800	   162.900	    35.400
  14.000	 230.400	   156.100	    35.400
  14.000	 234.000	   166.200	    35.400
  14.000	 237.600	   164.100	    35.400
  14.000	 241.200	   168.200	    35.400
  14.000	 244.800	   175.300	    35.400
  14.000	 248.400	   169.500	    35.400
  14.000	 252.000	   177.700	    35.400
  14.000	 255.600	   168.500	    35.400
  14.000	 259.200	   174.700	    35.400
  14.000	 262.800	   183.200	    35.400
  14.000	 266.400	   183.300	    35.400
  14.000	 270.000	   182.300	    35.400
  14.000	 273.600	   184.400	    35.400
  14.000	 277.200	   182.700	    35.400
  14.000	 280.800	   187.000	    35.400
  14.000	 284.400	   192.300	    35.400
  14.000	 288.000	   189.900	    35.400
  14.000	 291.600	   189.500	    35.400
  14.000	 295.200	   184.000	    35.400
  14.000	 298.800	   191.300	    35.400
  14.000	 302.400	   182.400	    35.400
  14.000	 306.000	   194.700	    35.400
  14.000	 309.600	   180.700	    35.400
  14.000	 313.200	   181.100	    35.400
  14.000	 316.800	   190.300	    35.400
  14.000	 320.400	   187.900	    35.400
  14.000	 324.000	   180.500	    35.400
  14.000	 327.600	   182.800	    35.400
  14.000	 331.200	   186.000	    35.400
  14.000	 334.800	   183.600	    35.400
  14.000	 338.400	   180.700	    35.400
  14.000	 342.000	   182.800	    35.400
  14.000	 345.600	   181.500	    35.400
  14.000	 349.200	   180.600	    35.400
  14.000	 352.800	   179.700	    35.400
  14.000	 356.400	   168.100	    35.400
  14.000	 360.000	   170.900	    35.400
  17.500	   0.000	   141.400	    40.800
  17.500	   3.600	   136.300	    40.800
  17.500	   7.200	   132.400	    40.800
  17.500	  10.800	   135.600	    40.800
  17.500	  14.400	   142.400	    40.800
  17.500	  18.000	   133.900	    40.800
  17.500	  21.600	   133.400	    40.800
  17.500	  25.200	   134.300	    40.800
  17.500	  28.800	   135.900	    40.800
  17.500	  32.400	   134.900	    40.800
  17.500	  36.000	   135.000	    40.800
  17.500	  39.600	   128.200	    40.800
  17.500	  43.200	   134.000	    40.800
  17.500	  46.800	   122.500	    40.800
  17.500	  50.400	   122.400	    40.800
  17.500	  54.000	   124.000	    40.800
  17.500	  57.600	   130.100	    40.800
  17.500	  61.200	   128.700	    40.800
  17.500	  64.800	   116.400	    40.800
  17.500	  68.400	   118.100	    40.800
  17.500	  72.000	   120.600	    40.800
  17.500	  75.600	   117.000	    40.800
  17.500	  79.200	   120.000	    40.800
  17.500	  82.800	   116.800	    40.800
  17.500	  86.400	   116.400	    40.800
  17.500	  90.000	   111.900	    40.800
  17.500	  93.600	   111.200	    40.800
  17.500	  97.200	   110.500	    40.800
  17.500	 100.800	   111.800	    40.800
  17.500	 104.400	   117.700	    40.800
  17.500	 108.000	   111.000	    40.800
  17.500	 111.600	   109.700	    40.800
  17.500	 115.200	   115.500	    40.800
  17.500	 118.800	   108.500	    40.800
  17.500	 122.400	   107.700	    40.800
  17.500	 126.000	   109.400	    40.800
  17.500	 129.600	   111.900	    40.800
  17.500	 133.200	   108.200	    40.800
  17.500	 136.800	   107.100	    40.800
  17.500	 140.400	   108.300	    40.800
  17.500	 144.000	   109.400	    40.800
  17.500	 147.600	   106.000	    40.800
  17.500	 151.200	   106.500	    40.800
  17.500	 154.800	   112.600	    40.800
  17.500	 158.400	   110.700	    40.800
  17.500	 162.000	   106.200	    40.800
  17.500	 165.600	    99.000	    40.800
  17.500	 169.200	   106.200	    40.800
  17.500	 172.800	   106.500	    40.800
  17.500	 176.400	   106.400	    40.800
  17.500	 180.000	   108.100	    40.800
  17.500	 183.600	   112.000	    40.800
  17.500	 187.200	   105.700	    40.800
  17.500	 190.800	   108.800	    40.800
  17.500	 194.400	   109.200	    40.800
  17.500	 198.000	   110.800	    40.800
  17.500	 201.600	   114.700	    40.800
  17.500	 205.200	   114.500	    40.800
  17.500	 208.800	   118.700	    40.800
  17.500	 212.400	   123.000	    40.800
  17.500	 216.000	   122.700	    40.800
  17.500	 219.600	   124.600	    40.800
  17.500	 223.200	   120.500	    40.800
  17.500	 226.800	   133.000	    40.800
  17.500	 230.400	   130.800	    40.800
  17.500	 234.000	   141.700	    40.800
  17.500	 237.600	   141.500	    40.800
  17.500	 241.200	   147.500	    40.800
  17.500	 244.800	   139.000	    40.800
  17.500	 248.400	   145.300	    40.800
  17.500	 252.000	   139.200	    40.800
  17.500	 255.600	   151.400	    40.800
  17.500	 259.200	   150.500	    40.800
  17.500	 262.800	   153.400	    40.800
  17.500	 266.400	   150.700	    40.800
  17.500	 270.000	   148.200	    40.800
  17.500	 273.600	   152.800	    40.800
  17.500	 277.200	   147.500	    40.800
  17.500	 280.800	   152.500	    40.800
  17.500	 284.400	   152.700	    40.800
  17.500	 288.000	   153.700	    40.800
  17.500	 291.600	   148.700	    40.800
  17.500	 295.200	   153.900	    40.800
  17.500	 298.800	   152.500	    40.800
  17.500	 302.400	   148.000	    40.800
  17.500	 306.000	   155.800	    40.800
  17.500	 309.600	   149.200	    40.800
  17.500	 313.200	   151.200	    40.800
  17.500	 316.800	   146.200	    40.800
  17.500	 320.400	   149.700	    40.800
  17.500	 324.000	   145.600	    40.800
  17.500	 327.600	   143.000	    40.800
  17.500	 331.200	   149.500	    40.800
  17.500	 334.800	   151.800	    40.800
  17.500	 338.400	   152.600	    40.800
  17.500	 342.000	   145.600	    40.800
  17.500	 345.600	   147.800	    40.800
  17.500	 349.200	   147.700	    40.800
  17.500	 352.800	   141.700	    40.800
  17.500	 356.400	   144.400	    40.800
  17.500	 360.000	   139.500	    40.800
  21.000	   0.000	   114.300	    36.500
  21.000	   3.600	   115.500	    36.500
  21.000	   7.200	   115.200	    36.500
  21.000	  10.800	   114.100	    36.500
  21.000	  14.400	   110.100	    36.500
  21.000	  18.000	   111.400	    36.500
  21.000	  21.600	   110.900	    36.500
  21.000	  25.200	   107.500	    36.500
  21.000	  28.800	   105.000	    36.500
  21.000	  32.400	   111.800	    36.500
  21.000	  36.000	   106.300	    36.500
  21.000	  39.600	   101.400	    36.500
  21.000	  43.200	   108.000	    36.500
  21.000	  46.800	   106.900	    36.500
  21.000	  50.400	   101.100	    36.500
  21.000	  54.000	   104.600	    36.500
  21.000	  57.600	   104.100	    36.500
  21.000	  61.200	   100.400	    36.500
  21.000	  64.800	    99.300	    36.500
  21.000	  68.400	    97.800	    36.500
  21.000	  72.000	    96.900	    36.500
  21.000	  75.600	   104.500	    36.500
  21.000	  79.200	    94.400	    36.500
  21.000	  82.800	    98.700	    36.500
  21.000	  86.400	    97.600	    36.500
  21.000	  90.000	    93.600	    36.500
  21.000	  93.600	    98.100	    36.500
  21.000	  97.200	    92.800	    36.500
  21.000	 100.800	    96.300	    36.500
  21.000	 104.400	    90.800	    36.500
  21.000	 108.000	    90.200	    36.500
  21.000	 111.600	    93.100	    36.500
  21.000	 115.200	    91.500	    36.500
  21.000	 118.800	    90.800	    36.500
  21.000	 122.400	    85.200	    36.500
  21.000	 126.000	    88.100	    36.500
  21.000	 129.600	    88.900	    36.500
  21.000	 133.200	    85.500	    36.500
  21.000	 136.800	    90.500	    36.500
  21.000	 140.400	    82.300	    36.500
  21.000	 144.000	    87.400	    36.500
  21.000	 147.600	    90.200	    36.500
  21.000	 151.200	    87.100	    36.500
  21.000	 154.800	    85.300	    36.500
  21.000	 158.400	    84.300	    36.500
  21.000	 162.000	    86.400	    36.500
  21.000	 165.600	    84.800	    36.500
  21.000	 169.200	    82.400	    36.500
  21.000	 172.800	    87.100	    36.500
  21.000	 176.400	    81.400	    36.500
  21.000	 180.000	    88.300	    36.500
  21.000	 183.600	    88.300	    36.500
  21.000	 187.200	    88.600	    36.500
  21.000	 190.800	    91.700	    36.500
  21.000	 194.400	    91.100	    36.500
  21.000	 198.000	    94.300	    36.500
  21.000	 201.600	    97.100	    36.500
  21.000	 205.200	    93.900	    36.500
  21.000	 208.800	    93.100	    36.500
  21.000	 212.400	    97.100	    36.500
  21.000	 216.000	    96.900	    36.500
  21.000	 219.600	    98.100	    36.500
  21.000	 223.200	   101.700	    36.500
  21.000	 226.800	   105.800	    36.500
  21.000	 230.400	   104.400	    36.500
  21.000	 234.000	   107.500	    36.500
  21.000	 237.600	   112.500	    36.500
  21.000	 241.200	   105.600	    36.500
  21.000	 244.800	   113.600	    36.500
  21.000	 248.400	   115.100	    36.500
  21.000	 252.000	   116.200	    36.500
  21.000	 255.600	   117.100	    36.500
  21.000	 259.200	   122.100	    36.500
  21.000	 262.800	   117.500	    36.500
  21.000	 266.400	   118.400	    36.500
  21.000	 270.000	   118.500	    36.500
  21.000	 273.600	   121.000	    36.500
  21.000	 277.200	   122.000	    36.500
  21.000	 280.800	   124.500	    36.500
  21.000	 284.400	   132.200	    36.500
  21.000	 288.000	   124.800	    36.500
  21.000	 291.600	   126.200	    36.500
  21.000	 295.200	   122.300	    36.500
  21.000	 298.800	   125.100	    36.500
  21.000	 302.400	   128.900	    36.500
  21.000	 306.000	   122.700	    36.500
  21.000	 309.600	   124.100	    36.500
  21.000	 313.200	   120.100	    36.500
  21.000	 316.800	   124.900	    36.500
  21.000	 320.400	   124.400	    36.500
  21.000	 324.000	   122.500	    36.500
  21.000	 327.600	   118.300	    36.500
  21.000	 331.200	   123.000	    36.500
  21.000	 334.800	   118.000	    36.500
  21.000	 338.400	   113.000	    36.500
  21.000	 342.000	   120.800	    36.500
  21.000	 345.600	   119.400	    36.500
  21.000	 349.200	   112.300	    36.500
  21.000	 352.800	   114.800	    36.500
  21.000	 356.400	   112.300	    36.500
  21.000	 360.000	   113.400	    36.500
  24.500	   0.000	    93.900	    34.600
  24.500	   3.600	    96.400	    34.600
  24.500	   7.200	    92.600	    34.600
  24.500	  10.800	    96.400	    34.600
  24.500	  14.400	    93.800	    34.600
  24.500	  18.000	    94.100	    34.600
  24.500	  21.600	    84.400	    34.600
  24.500	  25.200	    91.200	    34.600
  24.500	  28.800	    93.200	    34.600
  24.500	  32.400	    87.400	    34.600
  24.500	  36.000	    90.900	    34.600
  24.500	  39.600	    91.400	    34.600
  24.500	  43.200	    87.100	    34.600
  24.500	  46.800	    91.600	    34.600
  24.500	  50.400	    88.900	    34.600
  24.500	  54.000	    89.700	    34.600
  24.500	  57.600	    88.000	    34.600
  24.500	  61.200	    91.000	    34.600
  24.500	  64.800	    87.200	    34.600
  24.500	  68.400	    91.300	    34.600
  24.500	  72.000	    85.600	    34.600
  24.500	  75.600	    87.600	    34.600
  24.500	  79.200	    85.400	    34.600
  24.500	  82.800	    84.100	    34.600
  24.500	  86.400	    81.100	    34.600
  24.500	  90.000	    88.500	    34.600
  24.500	  93.600	    90.000	    34.600
  24.500	  97.200	    83.800	    34.600
  24.500	 100.800	    76.500	    34.600
  24.500	 104.400	    84.300	    34.600
  24.500	 108.000	    84.800	    34.600
  24.500	 111.600	    76.300	    34.600
  24.500	 115.200	    76.800	    34.600
  24.500	 118.800	    77.500	    34.600
  24.500	 122.400	    78.000	    34.600
  24.500	 126.000	    79.100	    34.600
  24.500	 129.600	    75.600	    34.600
  24.500	 133.200	    75.400	    34.600
  24.500	 136.800	    76.700	    34.600
  24.500	 140.400	    74.000	    34.600
  24.500	 144.000	    74.900	    34.600
  24.500	 147.600	    72.600	    34.600
  24.500	 151.200	    78.600	    34.600
  24.500	 154.800	    77.600	    34.600
  24.500	 158.400	    70.600	    34.600
  24.500	 162.000	    70.200	    34.600
  24.500	 165.600	    73.600	    34.600
  24.500	 169.200	    74.900	    34.600
  24.500	 172.800	    71.600	    34.600
  24.500	 176.400	    74.000	    34.600
  24.500	 180.000	    76.000	    34.600
  24.500	 183.600	    78.300	    34.600
  24.500	 187.200	    74.500	    34.600
  24.500	 190.800	    77.100	    34.600
  24.500	 194.400	    74.200	    34.600
  24.500	 198.000	    78.500	    34.600
  24.500	 201.600	    78.200	    34.600
  24.500	 205.200	    76.500	    34.600
  24.500	 208.800	    82.800	    34.600
  24.500	 212.400	    80.100	    34.600
  24.500	 216.000	    85.200	    34.600
  24.500	 219.600	    81.900	    34.600
  24.500	 223.200	    83.500	    34.600
  24.500	 226.800	    91.600	    34.600
  24.500	 230.400	    89.700	    34.600
  24.500	 234.000	    91.900	    34.600
  24.500	 237.600	    84.300	    34.600
  24.500	 241.200	    94.900	    34.600
  24.500	 244.800	    90.300	    34.600
  24.500	 248.400	    95.600	    34.600
  24.500	 252.000	    94.700	    34.600
  24.500	 255.600	    94.100	    34.600
  24.500	 259.200	    98.900	    34.600
  24.500	 262.800	    93.400	    34.600
  24.500	 266.400	   100.000	    34.600
  24.500	 270.000	   101.800	    34.600
  24.500	 273.600	   101.600	    34.600
  24.500	 277.200	   102.100	    34.600
  24.500	 280.800	   102.500	    34.600
  24.500	 284.400	   101.200	    34.600
  24.500	 288.000	   105.000	    34.600
  24.500	 291.600	   110.400	    34.600
  24.500	 295.200	   101.700	    34.600
  24.500	 298.800	    95.600	    34.600
  24.500	 302.400	   105.200	    34.600
  24.500	 306.000	   103.100	    34.600
  24.500	 309.600	   104.300	    34.600
  24.500	 313.200	    95.800	    34.600
  24.500	 316.800	   104.100	    34.600
  24.500	 320.400	   106.200	    34.600
  24.500	 324.000	   103.100	    34.600
  24.500	 327.600	   102.500	    34.600
  24.500	 331.200	    99.300	    34.600
  24.500	 334.800	    95.400	    34.600
  24.500	 338.400	    98.200	    34.600
  24.500	 342.000	    95.400	    34.600
  24.500	 345.600	    91.800	    34.600
  24.500	 349.200	    95.700	    34.600
  24.500	 352.800	    90.300	    34.600
  24.500	 356.400	    99.100	    34.600
  24.500	 360.000	    97.200	    34.600
  28.000	   0.000	    83.900	    31.700
  28.000	   3.600	    82.600	    31.700
  28.000	   7.200	    82.400	    31.700
  28.000	  10.800	    80.400	    31.700
  28.000	  14.400	    78.900	    31.700
  28.000	  18.000	    79.600	    31.700
  28.000	  21.600	    83.100	    31.700
  28.000	  25.200	    80.100	    31.700
  28.000	  28.800	    81.900	    31.700
  28.000	  32.400	    81.100	    31.700
  28.000	  36.000	    75.100	    31.700
  28.000	  39.600	    81.100	    31.700
  28.000	  43.200	    78.100	    31.700
  28.000	  46.800	    72.800	    31.700
  28.000	  50.400	    75.000	    31.700
  28.000	  54.000	    76.500	    31.700
  28.000	  57.600	    81.300	    31.700
  28.000	  61.200	    79.100	    31.700
  28.000	  64.800	    75.600	    31.700
  28.000	  68.400	    78.200	    31.700
  28.000	  72.000	    85.600	    31.700
  28.000	  75.600	    76.000	    31.700
  28.000	  79.200	    78.100	    31.700
  28.000	  82.800	    76.500	    31.700
  28.000	  86.400	    73.100	    31.700
  28.000	  90.000	    78.300	    31.700
  28.000	  93.600	    74.200	    31.700
  28.000	  97.200	    76.700	    31.700
  28.000	 100.800	    73.800	    31.700
  28.000	 104.400	    73.600	    31.700
  28.000	 108.000	    74.700	    31.700
  28.000	 111.600	    70.900	    31.700
  28.000	 115.200	    68.700	    31.700
  28.000	 118.800	    70.600	    31.700
  28.000	 122.400	    67.900	    31.700
  28.000	 126.000	    68.300	    31.700
  28.000	 129.600	    68.900	    31.700
  28.000	 133.200	    73.400	    31.700
  28.000	 136.800	    65.600	    31.700
  28.000	 140.400	    65.100	    31.700
  28.000	 144.000	    64.100	    31.700
  28.000	 147.600	    64.600	    31.700
  28.000	 151.200	    64.400	    31.700
  28.000	 154.800	    60.800	    31.700
  28.000	 158.400	    61.500	    31.700
  28.000	 162.000	    60.400	    31.700
  28.000	 165.600	    68.500	    31.700
  28.000	 169.200	    68.600	    31.700
  28.000	 172.800	    67.500	    31.700
  28.000	 176.400	    63.100	    31.700
  28.000	 180.000	    65.100	    31.700
  28.000	 183.600	    67.700	    31.700
  28.000	 187.200	    63.200	    31.700
  28.000	 190.800	    69.800	    31.700
  28.000	 194.400	    65.400	    31.700
  28.000	 198.000	    67.200	    31.700
  28.000	 201.600	    68.800	    31.700
  28.000	 205.200	    71.500	    31.700
  28.000	 208.800	    72.500	    31.700
  28.000	 212.400	    69.400	    31.700
  28.000	 216.000	    73.900	    31.700
  28.000	 219.600	    70.300	    31.700
  28.000	 223.200	    75.200	    31.700
  28.000	 226.800	    80.600	    31.700
  28.000	 230.400	    77.100	    31.700
  28.000	 234.000	    73.400	    31.700
  28.000	 237.600	    76.100	    31.700
  28.000	 241.200	    80.700	    31.700
  28.000	 244.800	    76.100	    31.700
  28.000	 248.400	    78.000	    31.700
  28.000	 252.000	    81.400	    31.700
  28.000	 255.600	    84.200	    31.700
  28.000	 259.200	    84.400	    31.700
  28.000	 262.800	    81.400	    31.700
  28.000	 266.400	    85.400	    31.700
  28.000	 270.000	    90.600	    31.700
  28.000	 273.600	    88.500	    31.700
  28.000	 277.200	    92.400	    31.700
  28.000	 280.800	    86.500	    31.700
  28.000	 284.400	    89.500	    31.700
  28.000	 288.000	    80.000	    31.700
  28.000	 291.600	    88.300	    31.700
  28.000	 295.200	    83.800	    31.700
  28.000	 298.800	    90.100	    31.700
  28.000	 302.400	    88.800	    31.700
  28.000	 306.000	    83.100	    31.700
  28.000	 309.600	    86.400	    31.700
  28.000	 313.200	    82.300	    31.700
  28.000	 316.800	    88.300	    31.700
  28.000	 320.400	    88.400	    31.700
  28.000	 324.000	    89.000	    31.700
  28.000	 327.600	    90.900	    31.700
  28.000	 331.200	    84.000	    31.700
  28.000	 334.800	    84.600	    31.700
  28.000	 338.400	    85.300	    31.700
  28.000	 342.000	    82.400	    31.700
  28.000	 345.600	    80.500	    31.700
  28.000	 349.200	    82.500	    31.700
  28.000	 352.800	    84.900	    31.700
  28.000	 356.400	    80.700	    31.700
  28.000	 360.000	    81.700	    31.700
  31.500	   0.000	    71.700	    32.500
  31.500	   3.600	    79.300	    32.500
  31.500	   7.200	    80.300	    32.500
  31.500	  10.800	    75.600	    32.500
  31.500	  14.400	    82.000	    32.500
  31.500	  18.000	    72.200	    32.500
  31.500	  21.600	    77.700	    32.500
  31.500	  25.200	    78.700	    32.500
  31.500	  28.800	    75.400	    32.500
  31.500	  32.400	    70.300	    32.500
  31.500	  36.000	    74.500	    32.500
  31.500	  39.600	    67.600	    32.500
  31.500	  43.200	    78.200	    32.500
  31.500	  46.800	    70.700	    32.500
  31.500	  50.400	    71.100	    32.500
  31.500	  54.000	    71.000	    32.500
  31.500	  57.600	    72.300	    32.500
  31.500	  61.200	    70.400	    32.500
  31.500	  64.800	    73.600	    32.500
  31.500	  68.400	    67.500	    32.500
  31.500	  72.000	    69.000	    32.500
  31.500	  75.600	    72.600	    32.500
  31.500	  79.200	    71.300	    32.500
  31.500	  82.800	    71.500	    32.500
  31.500	  86.400	    70.800	    32.500
  31.500	  90.000	    68.900	    32.500
  31.500	  93.600	    67.200	    32.500
  31.500	  97.200	    71.600	    32.500
  31.500	 100.800	    71.200	    32.500
  31.500	 104.400	    69.200	    32.500
  31.500	 108.000	    70.200	    32.500
  31.500	 111.600	    65.600	    32.500
  31.500	 115.200	    64.400	    32.500
  31.500	 118.800	    65.100	    32.500
  31.500	 122.400	    62.400	    32.500
  31.500	 126.000	    63.800	    32.500
  31.500	 129.600	    59.800	    32.500
  31.500	 133.200	    63.000	    32.500
  31.500	 136.800	    59.000	    32.500
  31.500	 140.400	    65.000	    32.500
  31.500	 144.000	    61.100	    32.500
  31.500	 147.600	    60.300	    32.500
  31.500	 151.200	    60.800	    32.500
  31.500	 154.800	    57.300	    32.500
  31.500	 158.400	    61.500	    32.500
  31.500	 162.000	    57.900	    32.500
  31.500	 165.600	    60.900	    32.500
  31.500	 169.200	    63.900	    32.500
  31.500	 172.800	    62.400	    32.500
  31.500	 176.400	    58.800	    32.500
  31.500	 180.000	    60.800	    32.500
  31.500	 183.600	    60.900	    32.500
  31.500	 187.200	    60.900	    32.500
  31.500	 190.800	    62.800	    32.500
  31.500	 194.400	    64.400	    32.500
  31.500	 198.000	    62.200	    32.500
  31.500	 201.600	    59.600	    32.500
  31.500	 205.200	    62.700	    32.500
  31.500	 208.800	    64.100	    32.500
  31.500	 212.400	    61.500	    32.500
  31.500	 216.000	    64.700	    32.500
  31.500	 219.600	    60.400	    32.500
  31.500	 223.200	    65.600	    32.500
  31.500	 226.800	    68.900	    32.500
  31.500	 230.400	    66.600	    32.500
  31.500	 234.000	    65.000	    32.500
  31.500	 237.600	    68.400	    32.500
  31.500	 241.200	    69.800	    32.500
  31.500	 244.800	    75.100	    32.500
  31.500	 248.400	    73.900	    32.500
  31.500	 252.000	    73.200	    32.500
  31.500	 255.600	    74.500	    32.500
  31.500	 259.200	    75.200	    32.500
  31.500	 262.800	    74.100	    32.500
  31.500	 266.400	    70.700	    32.500
  31.500	 270.000	    74.600	    32.500
  31.500	 273.600	    76.000	    32.500
  31.500	 277.200	    78.200	    32.500
  31.500	 280.800	    77.500	    32.500
  31.500	 284.400	    77.600	    32.500
  31.500	 288.000	    81.600	    32.500
  31.500	 291.600	    81.100	    32.500
  31.500	 295.200	    85.100	    32.500
  31.500	 298.800	    80.900	    32.500
  31.500	 302.400	    76.900	    32.500
  31.500	 306.000	    74.400	    32.500
  31.500	 309.600	    74.000	    32.500
  31.500	 313.200	    77.200	    32.500
  31.500	 316.800	    74.800	    32.500
  31.500	 320.400	    76.300	    32.500
  31.500	 324.000	    78.300	    32.500
  31.500	 327.600	    75.300	    32.500
  31.500	 331.200	    76.700	    32.500
  31.500	 334.800	    74.700	    32.500
  31.500	 338.400	    77.700	    32.500
  31.500	 342.000	    73.600	    32.500
  31.500	 345.600	    74.400	    32.500
  31.500	 349.200	    74.800	    32.500
  31.500	 352.800	    81.700	    32.500
  31.500	 356.400	    72.500	    32.500
  31.500	 360.000	    76.100	    32.500
  35.000	   0.000	    65.500	    32.200
  35.000	   3.600	    71.700	    32.200
  35.000	   7.200	    63.800	    32.200
  35.000	  10.800	    63.400	    32.200
  35.000	  14.400	    68.600	    32.200
  35.000	  18.000	    70.700	    32.200
  35.000	  21.600	    71.700	    32.200
  35.000	  25.200	    64.900	    32.200
  35.000	  28.800	    69.700	    32.200
  35.000	  32.400	    67.100	    32.200
  35.000	  36.000	    68.300	    32.200
  35.000	  39.600	    68.300	    32.200
  35.000	  43.200	    76.000	    32.200
  35.000	  46.800	    73.700	    32.200
  35.000	  50.400	    69.200	    32.200
  35.000	  54.000	    73.500	    32.200
  35.000	  57.600	    68.800	    32.200
  35.000	  61.200	    73.400	    32.200
  35.000	  64.800	    71.000	    32.200
  35.000	  68.400	    66.900	    32.200
  35.000	  72.000	    64.700	    32.200
  35.000	  75.600	    71.100	    32.200
  35.000	  79.200	    67.000	    32.200
  35.000	  82.800	    72.000	    32.200
  35.000	  86.400	    65.500	    32.200
  35.000	  90.000	    65.000	    32.200
  35.000	  93.600	    65.000	    32.200
  35.000	  97.200	    68.000	    32.200
  35.000	 100.800	    65.700	    32.200
  35.000	 104.400	    65.600	    32.200
  35.000	 108.000	    58.100	    32.200
  35.000	 111.600	    66.400	    32.200
  35.000	 115.200	    62.400	    32.200
  35.000	 118.800	    57.900	    32.200
  35.000	 122.400	    62.600	    32.200
  35.000	 126.000	    58.600	    32.200
  35.000	 129.600	    61.000	    32.200
  35.000	 133.200	    61.800	    32.200
  35.000	 136.800	    57.400	    32.200
  35.000	 140.400	    57.000	    32.200
  35.000	 144.000	    58.000	    32.200
  35.000	 147.600	    56.300	    32.200
  35.000	 151.200	    53.300	    32.200
  35.000	 154.800	    63.000	    32.200
  35.000	 158.400	    57.000	    32.200
  35.000	 162.000	    58.500	    32.200
  35.000	 165.600	    54.700	    32.200
  35.000	 169.200	    56.300	    32.200
  35.000	 172.800	    54.500	    32.200
  35.000	 176.400	    57.100	    32.200
  35.000	 180.000	    58.200	    32.200
  35.000	 183.600	    56.200	    32.200
  35.000	 187.200	    56.800	    32.200
  35.000	 190.800	    56.400	    32.200
  35.000	 194.400	    59.800	    32.200
  35.000	 198.000	    57.400	    32.200
  35.000	 201.600	    55.500	    32.200
  35.000	 205.200	    61.200	    32.200
  35.000	 208.800	    59.100	    32.200
  35.000	 212.400	    60.200	    32.200
  35.000	 216.000	    65.000	    32.200
  35.000	 219.600	    61.700	    32.200
  35.000	 223.200	    59.200	    32.200
  35.000	 226.800	    57.900	    32.200
  35.000	 230.400	    66.100	    32.200
  35.000	 234.000	    57.700	    32.200
  35.000	 237.600	    58.700	    32.200
  35.000	 241.200	    65.200	    32.200
  35.000	 244.800	    68.800	    32.200
  35.000	 248.400	    64.100	    32.200
  35.000	 252.000	    66.100	    32.200
  35.000	 255.600	    67.300	    32.200
  35.000	 259.200	    67.100	    32.200
  35.000	 262.800	    68.900	    32.200
  35.000	 266.400	    69.600	    32.200
  35.000	 270.000	    68.900	    32.200
  35.000	 273.600	    71.100	    32.200
  35.000	 277.200	    71.200	    32.200
  35.000	 280.800	    73.600	    32.200
  35.000	 284.400	    74.300	    32.200
  35.000	 288.000	    75.900	    32.200
  35.000	 291.600	    66.700	    32.200
  35.000	 295.200	    69.400	    32.200
  35.000	 298.800	    69.900	    32.200
  35.000	 302.400	    67.000	    32.200
  35.000	 306.000	    68.600	    32.200
  35.000	 309.600	    65.500	    32.200
  35.000	 313.200	    67.700	    32.200
  35.000	 316.800	    68.300	    32.200
  35.000	 320.400	    70.100	    32.200
  35.000	 324.000	    64.400	    32.200
  35.000	 327.600	    67.800	    32.200
  35.000	 331.200	    71.900	    32.200
  35.000	 334.800	    72.300	    32.200
  35.000	 338.400	    71.900	    32.200
  35.000	 342.000	    68.000	    32.200
  35.000	 345.600	    69.500	    32.200
  35.000	 349.200	    64.600	    32.200
  35.000	 352.800	    67.000	    32.200
  35.000	 356.400	    69.300	    32.200
  35.000	 360.000	    71.500	    32.200
  38.500	   0.000	    67.400	    34.500
  38.500	   3.600	    63.900	    34.500
  38.500	   7.200	    63.200	    34.500
  38.500	  10.800	    60.500	    34.500
  38.500	  14.400	    65.400	    34.500
  38.500	  18.000	    69.900	    34.500
  38.500	  21.600	    65.000	    34.500
  38.500	  25.200	    62.500	    34.500
  38.500	  28.800	    62.600	    34.500
  38.500	  32.400	    66.000	    34.500
  38.500	  36.000	    61.500	    34.500
  38.500	  39.600	    68.100	    34.500
  38.500	  43.200	    62.600	    34.500
  38.500	  46.800	    63.800	    34.500
  38.500	  50.400	    70.300	    34.500
  38.500	  54.000	    68.000	    34.500
  38.500	  57.600	    65.700	    34.500
  38.500	  61.200	    65.500	    34.500
  38.500	  64.800	    65.900	    34.500
  38.500	  68.400	    68.000	    34.500
  38.500	  72.000	    65.500	    34.500
  38.500	  75.600	    70.200	    34.500
  38.500	  79.200	    67.700	    34.500
  38.500	  82.800	    66.100	    34.500
  38.500	  86.400	    63.700	    34.500
  38.500	  90.000	    61.700	    34.500
  38.500	  93.600	    64.100	    34.500
  38.500	  97.200	    62.500	    34.500
  38.500	 100.800	    66.300	    34.500
  38.500	 104.400	    61.100	    34.500
  38.500	 108.000	    56.500	    34.500
  38.500	 111.600	    61.500	    34.500
  38.500	 115.200	    54.000	    34.500
  38.500	 118.800	    57.400	    34.500
  38.500	 122.400	    60.700	    34.500
  38.500	 126.000	    59.700	    34.500
  38.500	 129.600	    61.200	    34.500
  38.500	 133.200	    56.700	    34.500
  38.500	 136.800	    58.600	    34.500
  38.500	 140.400	    55.600	    34.500
  38.500	 144.000	    55.700	    34.500
  38.500	 147.600	    54.800	    34.500
  38.500	 151.200	    54.600	    34.500
  38.500	 154.800	    57.000	    34.500
  38.500	 158.400	    58.000	    34.500
  38.500	 162.000	    54.300	    34.500
  38.500	 165.600	    56.800	    34.500
  38.500	 169.200	    50.900	    34.500
  38.500	 172.800	    52.100	    34.500
  38.500	 176.400	    57.500	    34.500
  38.500	 180.000	    52.500	    34.500
  38.500	 183.600	    54.000	    34.500
  38.500	 187.200	    55.100	    34.500
  38.500	 190.800	    57.700	    34.500
  38.500	 194.400	    57.000	    34.500
  38.500	 198.000	    52.600	    34.500
  38.500	 201.600	    56.200	    34.500
  38.500	 205.200	    50.500	    34.500
  38.500	 208.800	    58.000	    34.500
  38.500	 212.400	    56.400	    34.500
  38.500	 216.000	    55.100	    34.500
  38.500	 219.600	    56.400	    34.500
  38.500	 223.200	    56.200	    34.500
  38.500	 226.800	    55.500	    34.500
  38.500	 230.400	    59.400	    34.500
  38.500	 234.000	    61.900	    34.500
  38.500	 237.600	    60.200	    34.500
  38.500	 241.200	    62.400	    34.500
  38.500	 244.800	    59.600	    34.500
  38.500	 248.400	    63.200	    34.500
  38.500	 252.000	    62.300	    34.500
  38.500	 255.600	    65.300	    34.500
  38.500	 259.200	    62.500	    34.500
  38.500	 262.800	    60.300	    34.500
  38.500	 266.400	    62.300	    34.500
  38.500	 270.000	    62.300	    34.500
  38.500	 273.600	    68.900	    34.500
  38.500	 277.200	    68.400	    34.500
  38.500	 280.800	    66.400	    34.500
  38.500	 284.400	    68.600	    34.500
  38.500	 288.000	    62.500	    34.500
  38.500	 291.600	    64.100	    34.500
  38.500	 295.200	    66.200	    34.500
  38.500	 298.800	    68.200	    34.500
  38.500	 302.400	    66.800	    34.500
  38.500	 306.000	    65.000	    34.500
  38.500	 309.600	    63.100	    34.500
  38.500	 313.200	    65.400	    34.500
  38.500	 316.800	    63.400	    34.500
  38.500	 320.400	    68.400	    34.500
  38.500	 324.000	    60.500	    34.500
  38.500	 327.600	    66.900	    34.500
  38.500	 331.200	    67.400	    34.500
  38.500	 334.800	    68.100	    34.500
  38.500	 338.400	    65.600	    34.500
  38.500	 342.000	    63.200	    34.500
  38.500	 345.600	    64.100	    34.500
  38.500	 349.200	    70.400	    34.500
  38.500	 352.800	    67.800	    34.500
  38.500	 356.400	    63.800	    34.500
  38.500	 360.000	    65.500	    34.500
  42.000	   0.000	    67.500	    32.800
  42.000	   3.600	    64.400	    32.800
  42.000	   7.200	    65.900	    32.800
  42.000	  10.800	    65.400	    32.800
  42.000	  14.400	    60.200	    32.800
  42.000	  18.000	    67.800	    32.800
  42.000	  21.600	    70.000	    32.800
  42.000	  25.200	    63.400	    32.800
  42.000	  28.800	    64.500	    32.800
  42.000	  32.400	    63.800	    32.800
  42.000	  36.000	    63.200	    32.800
  42.000	  39.600	    60.600	    32.800
  42.000	  43.200	    63.900	    32.800
  42.000	  46.800	    67.700	    32.800
  42.000	  50.400	    61.700	    32.800
  42.000	  54.000	    67.800	    32.800
  42.000	  57.600	    69.800	    32.800
  42.000	  61.200	    67.100	    32.800
  42.000	  64.800	    64.300	    32.800
  42.000	  68.400	    70.100	    32.800
  42.000	  72.000	    66.200	    32.800
  42.000	  75.600	    65.800	    32.800
  42.000	  79.200	    61.500	    32.800
  42.000	  82.800	    63.100	    32.800
  42.000	  86.400	    64.000	    32.800
  42.000	  90.000	    63.800	    32.800
  42.000	  93.600	    63.900	    32.800
  42.000	  97.200	    61.500	    32.800
  42.000	 100.800	    61.800	    32.800
  42.000	 104.400	    62.100	    32.800
  42.000	 108.000	    60.300	    32.800
  42.000	 111.600	    59.400	    32.800
  42.000	 115.200	    61.200	    32.800
  42.000	 118.800	    55.800	    32.800
  42.000	 122.400	    58.400	    32.800
  42.000	 126.000	    55.600	    32.800
  42.000	 129.600	    58.300	    32.800
  42.000	 133.200	    62.600	    32.800
  42.000	 136.800	    55.300	    32.800
  42.000	 140.400	    54.800	    32.800
  42.000	 144.000	    56.600	    32.800
  42.000	 147.600	    59.600	    32.800
  42.000	 151.200	    54.800	    32.800
  42.000	 154.800	    57.500	    32.800
  42.000	 158.400	    56.400	    32.800
  42.000	 162.000	    55.700	    32.800
  42.000	 165.600	    55.700	    32.800
  42.000	 169.200	    54.900	    32.800
  42.000	 172.800	    54.200	    32.800
  42.000	 176.400	    53.200	    32.800
  42.000	 180.000	    49.200	    32.800
  42.000	 183.600	    54.700	    32.800
  42.000	 187.200	    59.600	    32.800
  42.000	 190.800	    51.100	    32.800
  42.000	 194.400	    52.700	    32.800
  42.000	 198.000	    52.000	    32.800
  42.000	 201.600	    50.700	    32.800
  42.000	 205.200	    54.900	    32.800
  42.000	 208.800	    54.500	    32.800
  42.000	 212.400	    58.800	    32.800
  42.000	 216.000	    55.500	    32.800
  42.000	 219.600	    56.700	    32.800
  42.000	 223.200	    54.700	    32.800
  42.000	 226.800	    53.300	    32.800
  42.000	 230.400	    55.900	    32.800
  42.000	 234.000	    51.900	    32.800
  42.000	 237.600	    57.300	    32.800
  42.000	 241.200	    60.000	    32.800
  42.000	 244.800	    58.700	    32.800
  42.000	 248.400	    57.600	    32.800
  42.000	 252.000	    53.900	    32.800
  42.000	 255.600	    63.500	    32.800
  42.000	 259.200	    63.600	    32.800
  42.000	 262.800	    59.100	    32.800
  42.000	 266.400	    64.200	    32.800
  42.000	 270.000	    64.500	    32.800
  42.000	 273.600	    62.200	    32.800
  42.000	 277.200	    61.500	    32.800
  42.000	 280.800	    66.000	    32.800
  42.000	 284.400	    59.500	    32.800
  42.000	 288.000	    65.200	    32.800
  42.000	 291.600	    66.800	    32.800
  42.000	 295.200	    62.500	    32.800
  42.000	 298.800	    62.000	    32.800
  42.000	 302.400	    63.600	    32.800
  42.000	 306.000	    61.500	    32.800
  42.000	 309.600	    66.700	    32.800
  42.000	 313.200	    66.500	    32.800
  42.000	 316.800	    64.400	    32.800
  42.000	 320.400	    63.500	    32.800
  42.000	 324.000	    63.200	    32.800
  42.000	 327.600	    65.300	    32.800
  42.000	 331.200	    63.900	    32.800
  42.000	 334.800	    66.600	    32.800
  42.000	 338.400	    66.200	    32.800
  42.000	 342.000	    62.300	    32.800
  42.000	 345.600	    64.300	    32.800
  42.000	 349.200	    67.000	    32.800
  42.000	 352.800	    66.000	    32.800
  42.000	 356.400	    62.900	    32.800
  42.000	 360.000	    62.300	    32.800
  45.500	   0.000	    68.400	    36.000
  45.500	   3.600	    62.600	    36.000
  45.500	   7.200	    61.900	    36.000
  45.500	  10.800	    68.300	    36.000
  45.500	  14.400	    61.000	    36.000
  45.500	  18.000	    65.500	    36.000
  45.500	  21.600	    70.100	    36.000
  45.500	  25.200	    58.200	    36.000
  45.500	  28.800	    62.000	    36.000
  45.500	  32.400	    63.300	    36.000
  45.500	  36.000	    63.800	    36.000
  45.500	  39.600	    65.000	    36.000
  45.500	  43.200	    67.600	    36.000
  45.500	  46.800	    66.300	    36.000
  45.500	  50.400	    63.700	    36.000
  45.500	  54.000	    65.800	    36.000
  45.500	  57.600	    63.800	    36.000
  45.500	  61.200	    69.400	    36.000
  45.500	  64.800	    71.400	    36.000
  45.500	  68.400	    72.500	    36.000
  45.500	  72.000	    65.700	    36.000
  45.500	  75.600	    63.400	    36.000
  45.500	  79.200	    63.400	    36.000
  45.500	  82.800	    68.600	    36.000
  45.500	  86.400	    63.600	    36.000
  45.500	  90.000	    66.100	    36.000
  45.500	  93.600	    60.400	    36.000
  45.500	  97.200	    64.100	    36.000
  45.500	 100.800	    60.500	    36.000
  45.500	 104.400	    63.400	    36.000
  45.500	 108.000	    62.900	    36.000
  45.500	 111.600	    59.300	    36.000
  45.500	 115.200	    61.200	    36.000
  45.500	 118.800	    61.000	    36.000
  45.500	 122.400	    60.100	    36.000
  45.500	 126.000	    58.700	    36.000
  45.500	 129.600	    59.400	    36.000
  45.500	 133.200	    58.300	    36.000
  45.500	 136.800	    59.200	    36.000
  45.500	 140.400	    59.000	    36.000
  45.500	 144.000	    58.800	    36.000
  45.500	 147.600	    54.400	    36.000
  45.500	 151.200	    56.900	    36.000
  45.500	 154.800	    60.200	    36.000
  45.500	 158.400	    57.000	    36.000
  45.500	 162.000	    57.500	    36.000
  45.500	 165.600	    54.000	    36.000
  45.500	 169.200	    52.400	    36.000
  45.500	 172.800	    53.300	    36.000
  45.500	 176.400	    51.500	    36.000
  45.500	 180.000	    53.200	    36.000
  45.500	 183.600	    53.500	    36.000
  45.500	 187.200	    56.300	    36.000
  45.500	 190.800	    52.500	    36.000
  45.500	 194.400	    58.400	    36.000
  45.500	 198.000	    50.600	    36.000
  45.500	 201.600	    55.600	    36.000
  45.500	 205.200	    50.400	    36.000
  45.500	 208.800	    58.100	    36.000
  45.500	 212.400	    56.700	    36.000
  45.500	 216.000	    56.600	    36.000
  45.500	 219.600	    51.300	    36.000
  45.500	 223.200	    53.300	    36.000
  45.500	 226.800	    50.000	    36.000
  45.500	 230.400	    56.000	    36.000
  45.500	 234.000	    56.000	    36.000
  45.500	 237.600	    56.100	    36.000
  45.500	 241.200	    57.800	    36.000
  45.500	 244.800	    56.100	    36.000
  45.500	 248.400	    62.800	    36.000
  45.500	 252.000	    60.000	    36.000
  45.500	 255.600	    58.000	    36.000
  45.500	 259.200	    58.500	    36.000
  45.500	 262.800	    60.600	    36.000
  45.500	 266.400	    60.000	    36.000
  45.500	 270.000	    61.100	    36.000
  45.500	 273.600	    58.700	    36.000
  45.500	 277.200	    58.400	    36.000
  45.500	 280.800	    66.000	    36.000
  45.500	 284.400	    59.200	    36.000
  45.500	 288.000	    59.400	    36.000
  45.500	 291.600	    68.100	    36.000
  45.500	 295.200	    57.600	    36.000
  45.500	 298.800	    64.200	    36.000
  45.500	 302.400	    66.200	    36.000
  45.500	 306.000	    60.600	    36.000
  45.500	 309.600	    66.200	    36.000
  45.500	 313.200	    61.600	    36.000
  45.500	 316.800	    62.100	    36.000
  45.500	 320.400	    63.500	    36.000
  45.500	 324.000	    64.200	    36.000
  45.500	 327.600	    63.500	    36.000
  45.500	 331.200	    62.800	    36.000
  45.500	 334.800	    64.900	    36.000
  45.500	 338.400	    62.400	    36.000
  45.500	 342.000	    69.200	    36.000
  45.500	 345.600	    65.800	    36.000
  45.500	 349.200	    66.700	    36.000
  45.500	 352.800	    59.100	    36.000
  45.500	 356.400	    65.400	    36.000
  45.500	 360.000	    62.800	    36.000
  49.000	   0.000	    65.300	    32.500
  49.000	   3.600	    67.100	    32.500
  49.000	   7.200	    59.800	    32.500
  49.000	  10.800	    66.500	    32.500
  49.000	  14.400	    65.100	    32.500
  49.000	  18.000	    63.600	    32.500
  49.000	  21.600	    63.200	    32.500
  49.000	  25.200	    59.400	    32.500
  49.000	  28.800	    61.300	    32.500
  49.000	  32.400	    66.600	    32.500
  49.000	  36.000	    70.600	    32.500
  49.000	  39.600	    65.800	    32.500
  49.000	  43.200	    65.800	    32.500
  49.000	  46.800	    67.700	    32.500
  49.000	  50.400	    66.400	    32.500
  49.000	  54.000	    69.900	    32.500
  49.000	  57.600	    70.100	    32.500
  49.000	  61.200	    70.100	    32.500
  49.000	  64.800	    67.500	    32.500
  49.000	  68.400	    70.500	    32.500
  49.000	  72.000	    68.600	    32.500
  49.000	  75.600	    64.900	    32.500
  49.000	  79.200	    65.700	    32.500
  49.000	  82.800	    68.300	    32.500
  49.000	  86.400	    66.300	    32.500
  49.000	  90.000	    72.800	    32.500
  49.000	  93.600	    63.300	    32.500
  49.000	  97.200	    67.000	    32.500
  49.000	 100.800	    64.200	    32.500
  49.000	 104.400	    66.900	    32.500
  49.000	 108.000	    67.400	    32.500
  49.000	 111.600	    67.500	    32.500
  49.000	 115.200	    62.800	    32.500
  49.000	 118.800	    65.900	    32.500
  49.000	 122.400	    60.000	    32.500
  49.000	 126.000	    59.800	    32.500
  49.000	 129.600	    61.200	    32.500
  49.000	 133.200	    62.000	    32.500
  49.000	 136.800	    61.200	    32.500
  49.000	 140.400	    62.800	    32.500
  49.000	 144.000	    60.500	    32.500
  49.000	 147.600	    59.600	    32.500
  49.000	 151.200	    57.100	    32.500
  49.000	 154.800	    65.300	    32.500
  49.000	 158.400	    53.500	    32.500
  49.000	 162.000	    56.500	    32.500
  49.000	 165.600	    57.600	    32.500
  49.000	 169.200	    52.700	    32.500
  49.000	 172.800	    61.300	    32.500
  49.000	 176.400	    55.100	    32.500
  49.000	 180.000	    53.000	    32.500
  49.000	 183.600	    55.300	    32.500
  49.000	 187.200	    54.500	    32.500
  49.000	 190.800	    53.400	    32.500
  49.000	 194.400	    55.300	    32.500
  49.000	 198.000	    53.200	    32.500
  49.000	 201.600	    57.600	    32.500
  49.000	 205.200	    55.500	    32.500
  49.000	 208.800	    54.300	    32.500
  49.000	 212.400	    55.500	    32.500
  49.000	 216.000	    54.100	    32.500
  49.000	 219.600	    54.800	    32.500
  49.000	 223.200	    55.500	    32.500
  49.000	 226.800	    58.300	    32.500
  49.000	 230.400	    56.800	    32.500
  49.000	 234.000	    54.700	    32.500
  49.000	 237.600	    53.700	    32.500
  49.000	 241.200	    60.000	    32.500
  49.000	 244.800	    55.400	    32.500
  49.000	 248.400	    55.900	    32.500
  49.000	 252.000	    60.600	    32.500
  49.000	 255.600	    62.100	    32.500
  49.000	 259.200	    56.700	    32.500
  49.000	 262.800	    57.900	    32.500
  49.000	 266.400	    62.700	    32.500
  49.000	 270.000	    58.100	    32.500
  49.000	 273.600	    61.900	    32.500
  49.000	 277.200	    56.300	    32.500
  49.000	 280.800	    61.400	    32.500
  49.000	 284.400	    60.800	    32.500
  49.000	 288.000	    63.900	    32.500
  49.000	 291.600	    63.400	    32.500
  49.000	 295.200	    62.200	    32.500
  49.000	 298.800	    62.700	    32.500
  49.000	 302.400	    63.400	    32.500
  49.000	 306.000	    60.000	    32.500
  49.000	 309.600	    64.700	    32.500
  49.000	 313.200	    59.400	    32.500
  49.000	 316.800	    63.800	    32.500
  49.000	 320.400	    64.700	    32.500
  49.000	 324.000	    63.600	    32.500
  49.000	 327.600	    65.900	    32.500
  49.000	 331.200	    61.000	    32.500
  49.000	 334.800	    65.500	    32.500
  49.000	 338.400	    69.500	    32.500
  49.000	 342.000	    63.200	    32.500
  49.000	 345.600	    63.200	    32.500
  49.000	 349.200	    67.500	    32.500
  49.000	 352.800	    62.700	    32.500
  49.000	 356.400	    64.900	    32.500
  49.000	 360.000	    60.800	    32.500
  52.500	   0.000	    65.400	    37.000
  52.500	   3.600	    65.500	    37.000
  52.500	   7.200	    63.700	    37.000
  52.500	  10.800	    66.800	    37.000
  52.500	  14.400	    64.200	    37.000
  52.500	  18.000	    62.600	    37.000
  52.500	  21.600	    65.200	    37.000
  52.500	  25.200	    68.500	    37.000
  52.500	  28.800	    65.400	    37.000
  52.500	  32.400	    69.100	    37.000
  52.500	  36.000	    64.200	    37.000
  52.500	  39.600	    66.600	    37.000
  52.500	  43.200	    68.100	    37.000
  52.500	  46.800	    67.100	    37.000
  52.500	  50.400	    68.000	    37.000
  52.500	  54.000	    72.400	    37.000
  52.500	  57.600	    67.200	    37.000
  52.500	  61.200	    71.600	    37.000
  52.500	  64.800	    73.100	    37.000
  52.500	  68.400	    70.700	    37.000
  52.500	  72.000	    69.100	    37.000
  52.500	  75.600	    74.100	    37.000
  52.500	  79.200	    67.300	    37.000
  52.500	  82.800	    65.000	    37.000
  52.500	  86.400	    68.300	    37.000
  52.500	  90.000	    72.700	    37.000
  52.500	  93.600	    68.900	    37.000
  52.500	  97.200	    65.000	    37.000
  52.500	 100.800	    65.500	    37.000
  52.500	 104.400	    65.900	    37.000
  52.500	 108.000	    66.200	    37.000
  52.500	 111.600	    60.700	    37.000
  52.500	 115.200	    67.900	    37.000
  52.500	 118.800	    68.000	    37.000
  52.500	 122.400	    66.700	    37.000
  52.500	 126.000	    63.000	    37.000
  52.500	 129.600	    66.900	    37.000
  52.500	 133.200	    61.100	    37.000
  52.500	 136.800	    60.500	    37.000
  52.500	 140.400	    60.800	    37.000
  52.500	 144.000	    61.700	    37.000
  52.500	 147.600	    61.700	    37.000
  52.500	 151.200	    60.600	    37.000
  52.500	 154.800	    60.600	    37.000
  52.500	 158.400	    66.700	    37.000
  52.500	 162.000	    61.400	    37.000
  52.500	 165.600	    55.600	    37.000
  52.500	 169.200	    58.800	    37.000
  52.500	 172.800	    55.400	    37.000
  52.500	 176.400	    59.900	    37.000
  52.500	 180.000	    55.300	    37.000
  52.500	 183.600	    60.700	    37.000
  52.500	 187.200	    54.400	    37.000
  52.500	 190.800	    54.900	    37.000
  52.500	 194.400	    52.500	    37.000
  52.500	 198.000	    57.200	    37.000
  52.500	 201.600	    55.200	    37.000
  52.500	 205.200	    57.300	    37.000
  52.500	 208.800	    56.300	    37.000
  52.500	 212.400	    57.100	    37.000
  52.500	 216.000	    58.200	    37.000
  52.500	 219.600	    55.900	    37.000
  52.500	 223.200	    58.500	    37.000
  52.500	 226.800	    58.300	    37.000
  52.500	 230.400	    59.000	    37.000
  52.500	 234.000	    58.300	    37.000
  52.500	 237.600	    61.900	    37.000
  52.500	 241.200	    57.600	    37.000
  52.500	 244.800	    58.300	    37.000
  52.500	 248.400	    62.200	    37.000
  52.500	 252.000	    58.700	    37.000
  52.500	 255.600	    60.500	    37.000
  52.500	 259.200	    59.400	    37.000
  52.500	 262.800	    54.900	    37.000
  52.500	 266.400	    62.300	    37.000
  52.500	 270.000	    59.400	    37.000
  52.500	 273.600	    56.600	    37.000
  52.500	 277.200	    60.500	    37.000
  52.500	 280.800	    64.000	    37.000
  52.500	 284.400	    63.400	    37.000
  52.500	 288.000	    64.200	    37.000
  52.500	 291.600	    62.000	    37.000
  52.500	 295.200	    62.900	    37.000
  52.500	 298.800	    65.700	    37.000
  52.500	 302.400	    64.100	    37.000
  52.500	 306.000	    66.600	    37.000
  52.500	 309.600	    68.000	    37.000
  52.500	 313.200	    69.800	    37.000
  52.500	 316.800	    65.900	    37.000
  52.500	 320.400	    66.900	    37.000
  52.500	 324.000	    65.900	    37.000
  52.500	 327.600	    67.800	    37.000
  52.500	 331.200	    71.600	    37.000
  52.500	 334.800	    67.700	    37.000
  52.500	 338.400	    70.400	    37.000
  52.500	 342.000	    69.600	    37.000
  52.500	 345.600	    68.500	    37.000
  52.500	 349.200	    67.800	    37.000
  52.500	 352.800	    67.300	    37.000
  52.500	 356.400	    63.400	    37.000
  52.500	 360.000	    68.600	    37.000
  56.000	   0.000	    68.700	    35.500
  56.000	   3.600	    69.700	    35.500
  56.000	   7.200	    67.400	    35.500
  56.000	  10.800	    67.200	    35.500
  56.000	  14.400	    66.300	    35.500
  56.000	  18.000	    64.900	    35.500
  56.000	  21.600	    66.000	    35.500
  56.000	  25.200	    66.200	    35.500
  56.000	  28.800	    66.200	    35.500
  56.000	  32.400	    65.600	    35.500
  56.000	  36.000	    67.300	    35.500
  56.000	  39.600	    68.500	    35.500
  56.000	  43.200	    70.200	    35.500
  56.000	  46.800	    76.300	    35.500
  56.000	  50.400	    69.600	    35.500
  56.000	  54.000	    67.000	    35.500
  56.000	  57.600	    74.000	    35.500
  56.000	  61.200	    71.400	    35.500
  56.000	  64.800	    71.500	    35.500
  56.000	  68.400	    72.000	    35.500
  56.000	  72.000	    71.300	    35.500
  56.000	  75.600	    74.200	    35.500
  56.000	  79.200	    75.300	    35.500
  56.000	  82.800	    74.100	    35.500
  56.000	  86.400	    69.700	    35.500
  56.000	  90.000	    69.100	    35.500
  56.000	  93.600	    75.100	    35.500
  56.000	  97.200	    73.500	    35.500
  56.000	 100.800	    73.100	    35.500
  56.000	 104.400	    72.200	    35.500
  56.000	 108.000	    78.700	    35.500
  56.000	 111.600	    68.600	    35.500
  56.000	 115.200	    75.700	    35.500
  56.000	 118.800	    71.800	    35.500
  56.000	 122.400	    64.900	    35.500
  56.000	 126.000	    67.000	    35.500
  56.000	 129.600	    66.900	    35.500
  56.000	 133.200	    70.900	    35.500
  56.000	 136.800	    65.200	    35.500
  56.000	 140.400	    65.900	    35.500
  56.000	 144.000	    63.300	    35.500
  56.000	 147.600	    63.000	    35.500
  56.000	 151.200	    65.300	    35.500
  56.000	 154.800	    64.000	    35.500
  56.000	 158.400	    60.500	    35.500
  56.000	 162.000	    62.100	    35.500
  56.000	 165.600	    63.500	    35.500
  56.000	 169.200	    58.600	    35.500
  56.000	 172.800	    58.200	    35.500
  56.000	 176.400	    61.600	    35.500
  56.000	 180.000	    59.400	    35.500
  56.000	 183.600	    57.100	    35.500
  56.000	 187.200	    59.500	    35.500
  56.000	 190.800	    63.500	    35.500
  56.000	 194.400	    59.500	    35.500
  56.000	 198.000	    57.200	    35.500
  56.000	 201.600	    57.000	    35.500
  56.000	 205.200	    59.800	    35.500
  56.000	 208.800	    61.000	    35.500
  56.000	 212.400	    59.900	    35.500
  56.000	 216.000	    58.400	    35.500
  56.000	 219.600	    58.000	    35.500
  56.000	 223.200	    56.800	    35.500
  56.000	 226.800	    64.200	    35.500
  56.000	 230.400	    61.300	    35.500
  56.000	 234.000	    56.800	    35.500
  56.000	 237.600	    62.000	    35.500
  56.000	 241.200	    60.100	    35.500
  56.000	 244.800	    57.600	    35.500
  56.000	 248.400	    63.100	    35.500
  56.000	 252.000	    67.600	    35.500
  56.000	 255.600	    63.300	    35.500
  56.000	 259.200	    62.900	    35.500
  56.000	 262.800	    60.800	    35.500
  56.000	 266.400	    66.400	    35.500
  56.000	 270.000	    65.100	    35.500
  56.000	 273.600	    61.200	    35.500
  56.000	 277.200	    62.000	    35.500
  56.000	 280.800	    64.600	    35.500
  56.000	 284.400	    64.700	    35.500
  56.000	 288.000	    66.500	    35.500
  56.000	 291.600	    68.700	    35.500
  56.000	 295.200	    69.500	    35.500
  56.000	 298.800	    70.200	    35.500
  56.000	 302.400	    66.600	    35.500
  56.000	 306.000	    69.500	    35.500
  56.000	 309.600	    67.700	    35.500
  56.000	 313.200	    72.200	    35.500
  56.000	 316.800	    72.200	    35.500
  56.000	 320.400	    68.900	    35.500
  56.000	 324.000	    70.400	    35.500
  56.000	 327.600	    71.200	    35.500
  56.000	 331.200	    76.500	    35.500
  56.000	 334.800	    67.200	    35.500
  56.000	 338.400	    69.900	    35.500
  56.000	 342.000	    72.100	    35.500
  56.000	 345.600	    69.500	    35.500
  56.000	 349.200	    69.200	    35.500
  56.000	 352.800	    64.900	    35.500
  56.000	 356.400	    70.700	    35.500
  56.000	 360.000	    71.500	    35.500
  59.500	   0.000	    71.100	    33.600
  59.500	   3.600	    64.900	    33.600
  59.500	   7.200	    68.600	    33.600
  59.500	  10.800	    71.600	    33.600
  59.500	  14.400	    68.000	    33.600
  59.500	  18.000	    68.800	    33.600
  59.500	  21.600	    66.500	    33.600
  59.500	  25.200	    70.300	    33.600
  59.500	  28.800	    66.300	    33.600
  59.500	  32.400	    69.900	    33.600
  59.500	  36.000	    71.300	    33.600
  59.500	  39.600	    66.600	    33.600
  59.500	  43.200	    65.100	    33.600
  59.500	  46.800	    68.700	    33.600
  59.500	  50.400	    74.700	    33.600
  59.500	  54.000	    75.100	    33.600
  59.500	  57.600	    70.200	    33.600
  59.500	  61.200	    72.400	    33.600
  59.500	  64.800	    76.000	    33.600
  59.500	  68.400	    76.700	    33.600
  59.500	  72.000	    80.600	    33.600
  59.500	  75.600	    80.100	    33.600
  59.500	  79.200	    78.400	    33.600
  59.500	  82.800	    81.100	    33.600
  59.500	  86.400	    76.600	    33.600
  59.500	  90.000	    74.100	    33.600
  59.500	  93.600	    78.700	    33.600
  59.500	  97.200	    78.700	    33.600
  59.500	 100.800	    80.500	    33.600
  59.500	 104.400	    74.700	    33.600
  59.500	 108.000	    75.500	    33.600
  59.500	 111.600	    77.200	    33.600
  59.500	 115.200	    72.500	    33.600
  59.500	 118.800	    66.800	    33.600
  59.500	 122.400	    75.700	    33.600
  59.500	 126.000	    72.900	    33.600
  59.500	 129.600	    68.500	    33.600
  59.500	 133.200	    74.300	    33.600
  59.500	 136.800	    68.300	    33.600
  59.500	 140.400	    69.700	    33.600
  59.500	 144.000	    67.600	    33.600
  59.500	 147.600	    67.900	    33.600
  59.500	 151.200	    65.200	    33.600
  59.500	 154.800	    64.600	    33.600
  59.500	 158.400	    67.000	    33.600
  59.500	 162.000	    68.000	    33.600
  59.500	 165.600	    63.800	    33.600
  59.500	 169.200	    64.600	    33.600
  59.500	 172.800	    63.100	    33.600
  59.500	 176.400	    66.100	    33.600
  59.500	 180.000	    66.700	    33.600
  59.500	 183.600	    59.200	    33.600
  59.500	 187.200	    65.200	    33.600
  59.500	 190.800	    64.400	    33.600
  59.500	 194.400	    60.900	    33.600
  59.500	 198.000	    59.500	    33.600
  59.500	 201.600	    65.800	    33.600
  59.500	 205.200	    63.300	    33.600
  59.500	 208.800	    60.300	    33.600
  59.500	 212.400	    61.500	    33.600
  59.500	 216.000	    60.700	    33.600
  59.500	 219.600	    64.400	    33.600
  59.500	 223.200	    66.300	    33.600
  59.500	 226.800	    61.300	    33.600
  59.500	 230.400	    61.900	    33.600
  59.500	 234.000	    65.400	    33.600
  59.500	 237.600	    63.100	    33.600
  59.500	 241.200	    62.800	    33.600
  59.500	 244.800	    63.600	    33.600
  59.500	 248.400	    70.300	    33.600
  59.500	 252.000	    65.000	    33.600
  59.500	 255.600	    67.300	    33.600
  59.500	 259.200	    67.300	    33.600
  59.500	 262.800	    64.200	    33.600
  59.500	 266.400	    67.000	    33.600
  59.500	 270.000	    70.800	    33.600
  59.500	 273.600	    67.600	    33.600
  59.500	 277.200	    73.900	    33.600
  59.500	 280.800	    71.100	    33.600
  59.500	 284.400	    67.200	    33.600
  59.500	 288.000	    70.800	    33.600
  59.500	 291.600	    73.300	    33.600
  59.500	 295.200	    70.000	    33.600
  59.500	 298.800	    73.200	    33.600
  59.500	 302.400	    70.500	    33.600
  59.500	 306.000	    73.200	    33.600
  59.500	 309.600	    76.500	    33.600
  59.500	 313.200	    77.600	    33.600
  59.500	 316.800	    74.100	    33.600
  59.500	 320.400	    75.900	    33.600
  59.500	 324.000	    78.200	    33.600
  59.500	 327.600	    80.900	    33.600
  59.500	 331.200	    77.000	    33.600
  59.500	 334.800	    78.800	    33.600
  59.500	 338.400	    77.400	    33.600
  59.500	 342.000	    77.800	    33.600
  59.500	 345.600	    75.100	    33.600
  59.500	 349.200	    73.800	    33.600
  59.500	 352.800	    75.700	    33.600
  59.500	 356.400	    72.300	    33.600
  59.500	 360.000	    74.300	    33.600
  63.000	   0.000	    75.500	    31.700
  63.000	   3.600	    73.600	    31.700
  63.000	   7.200	    72.500	    31.700
  63.000	  10.800	    64.900	    31.700
  63.000	  14.400	    73.300	    31.700
  63.000	  18.000	    69.300	    31.700
  63.000	  21.600	    70.000	    31.700
  63.000	  25.200	    75.400	    31.700
  63.000	  28.800	    65.300	    31.700
  63.000	  32.400	    73.200	    31.700
  63.000	  36.000	    69.700	    31.700
  63.000	  39.600	    70.100	    31.700
  63.000	  43.200	    68.200	    31.700
  63.000	  46.800	    71.400	    31.700
  63.000	  50.400	    74.400	    31.700
  63.000	  54.000	    79.800	    31.700
  63.000	  57.600	    72.600	    31.700
  63.000	  61.200	    76.100	    31.700
  63.000	  64.800	    77.700	    31.700
  63.000	  68.400	    80.400	    31.700
  63.000	  72.000	    79.400	    31.700
  63.000	  75.600	    80.100	    31.700
  63.000	  79.200	    82.300	    31.700
  63.000	  82.800	    80.400	    31.700
  63.000	  86.400	    81.200	    31.700
  63.000	  90.000	    86.100	    31.700
  63.000	  93.600	    84.800	    31.700
  63.000	  97.200	    88.200	    31.700
  63.000	 100.800	    87.200	    31.700
  63.000	 104.400	    78.600	    31.700
  63.000	 108.000	    75.200	    31.700
  63.000	 111.600	    82.500	    31.700
  63.000	 115.200	    85.100	    31.700
  63.000	 118.800	    78.200	    31.700
  63.000	 122.400	    75.200	    31.700
  63.000	 126.000	    76.200	    31.700
  63.000	 129.600	    80.600	    31.700
  63.000	 133.200	    77.700	    31.700
  63.000	 136.800	    74.800	    31.700
  63.000	 140.400	    77.300	    31.700
  63.000	 144.000	    69.600	    31.700
  63.000	 147.600	    70.100	    31.700
  63.000	 151.200	    70.900	    31.700
  63.000	 154.800	    70.200	    31.700
  63.000	 158.400	    70.500	    31.700
  63.000	 162.000	    65.800	    31.700
  63.000	 165.600	    70.900	    31.700
  63.000	 169.200	    69.300	    31.700
  63.000	 172.800	    65.600	    31.700
  63.000	 176.400	    65.400	    31.700
  63.000	 180.000	    65.600	    31.700
  63.000	 183.600	    66.300	    31.700
  63.000	 187.200	    64.400	    31.700
  63.000	 190.800	    64.000	    31.700
  63.000	 194.400	    64.600	    31.700
  63.000	 198.000	    60.100	    31.700
  63.000	 201.600	    62.900	    31.700
  63.000	 205.200	    62.900	    31.700
  63.000	 208.800	    66.200	    31.700
  63.000	 212.400	    58.500	    31.700
  63.000	 216.000	    67.700	    31.700
  63.000	 219.600	    65.100	    31.700
  63.000	 223.200	    62.100	    31.700
  63.000	 226.800	    63.900	    31.700
  63.000	 230.400	    70.500	    31.700
  63.000	 234.000	    67.000	    31.700
  63.000	 237.600	    65.200	    31.700
  63.000	 241.200	    63.000	    31.700
  63.000	 244.800	    66.300	    31.700
  63.000	 248.400	    71.500	    31.700
  63.000	 252.000	    69.200	    31.700
  63.000	 255.600	    67.300	    31.700
  63.000	 259.200	    68.300	    31.700
  63.000	 262.800	    69.500	    31.700
  63.000	 266.400	    69.700	    31.700
  63.000	 270.000	    72.000	    31.700
  63.000	 273.600	    75.100	    31.700
  63.000	 277.200	    72.200	    31.700
  63.000	 280.800	    74.600	    31.700
  63.000	 284.400	    74.000	    31.700
  63.000	 288.000	    68.000	    31.700
  63.000	 291.600	    79.100	    31.700
  63.000	 295.200	    72.000	    31.700
  63.000	 298.800	    74.100	    31.700
  63.000	 302.400	    80.500	    31.700
  63.000	 306.000	    82.900	    31.700
  63.000	 309.600	    82.000	    31.700
  63.000	 313.200	    82.600	    31.700
  63.000	 316.800	    82.200	    31.700
  63.000	 320.400	    79.900	    31.700
  63.000	 324.000	    80.800	    31.700
  63.000	 327.600	    86.600	    31.700
  63.000	 331.200	    81.400	    31.700
  63.000	 334.800	    83.400	    31.700
  63.000	 338.400	    78.600	    31.700
  63.000	 342.000	    76.900	    31.700
  63.000	 345.600	    82.500	    31.700
  63.000	 349.200	    72.600	    31.700
  63.000	 352.800	    75.900	    31.700
  63.000	 356.400	    73.100	    31.700
  63.000	 360.000	    71.200	    31.700
  66.500	   0.000	    78.300	    32.200
  66.500	   3.600	    72.500	    32.200
  66.500	   7.200	    71.200	    32.200
  66.500	  10.800	    72.700	    32.200
  66.500	  14.400	    72.500	    32.200
  66.500	  18.000	    65.500	    32.200
  66.500	  21.600	    71.500	    32.200
  66.500	  25.200	    70.700	    32.200
  66.500	  28.800	    66.800	    32.200
  66.500	  32.400	    73.500	    32.200
  66.500	  36.000	    71.200	    32.200
  66.500	  39.600	    68.700	    32.200
  66.500	  43.200	    73.000	    32.200
  66.500	  46.800	    70.700	    32.200
  66.500	  50.400	    69.600	    32.200
  66.500	  54.000	    73.000	    32.200
  66.500	  57.600	    75.900	    32.200
  66.500	  61.200	    74.700	    32.200
  66.500	  64.800	    76.200	    32.200
  66.500	  68.400	    77.700	    32.200
  66.500	  72.000	    78.800	    32.200
  66.500	  75.600	    86.200	    32.200
  66.500	  79.200	    76.100	    32.200
  66.500	  82.800	    81.600	    32.200
  66.500	  86.400	    91.200	    32.200
  66.500	  90.000	    87.300	    32.200
  66.500	  93.600	    89.200	    32.200
  66.500	  97.200	    87.600	    32.200
  66.500	 100.800	    91.000	    32.200
  66.500	 104.400	    88.700	    32.200
  66.500	 108.000	    79.900	    32.200
  66.500	 111.600	    81.300	    32.200
  66.500	 115.200	    80.300	    32.200
  66.500	 118.800	    81.700	    32.200
  66.500	 122.400	    77.700	    32.200
  66.500	 126.000	    80.600	    32.200
  66.500	 129.600	    82.600	    32.200
  66.500	 133.200	    77.500	    32.200
  66.500	 136.800	    77.600	    32.200
  66.500	 140.400	    79.500	    32.200
  66.500	 144.000	    71.700	    32.200
  66.500	 147.600	    76.600	    32.200
  66.500	 151.200	    73.800	    32.200
  66.500	 154.800	    69.500	    32.200
  66.500	 158.400	    74.900	    32.200
  66.500	 162.000	    67.100	    32.200
  66.500	 165.600	    68.200	    32.200
  66.500	 169.200	    73.000	    32.200
  66.500	 172.800	    69.000	    32.200
  66.500	 176.400	    69.800	    32.200
  66.500	 180.000	    66.500	    32.200
  66.500	 183.600	    66.300	    32.200
  66.500	 187.200	    67.300	    32.200
  66.500	 190.800	    67.700	    32.200
  66.500	 194.400	    66.500	    32.200
  66.500	 198.000	    63.300	    32.200
  66.500	 201.600	    62.600	    32.200
  66.500	 205.200	    64.200	    32.200
  66.500	 208.800	    60.700	    32.200
  66.500	 212.400	    61.800	    32.200
  66.500	 216.000	    62.700	    32.200
  66.500	 219.600	    65.100	    32.200
  66.500	 223.200	    68.700	    32.200
  66.500	 226.800	    69.100	    32.200
  66.500	 230.400	    65.100	    32.200
  66.500	 234.000	    67.600	    32.200
  66.500	 237.600	    66.900	    32.200
  66.500	 241.200	    69.700	    32.200
  66.500	 244.800	    73.700	    32.200
  66.500	 248.400	    73.600	    32.200
  66.500	 252.000	    71.700	    32.200
  66.500	 255.600	    70.600	    32.200
  66.500	 259.200	    69.100	    32.200
  66.500	 262.800	    70.700	    32.200
  66.500	 266.400	    76.700	    32.200
  66.500	 270.000	    80.000	    32.200
  66.500	 273.600	    76.700	    32.200
  66.500	 277.200	    74.000	    32.200
  66.500	 280.800	    73.100	    32.200
  66.500	 284.400	    78.200	    32.200
  66.500	 288.000	    82.000	    32.200
  66.500	 291.600	    87.400	    32.200
  66.500	 295.200	    77.100	    32.200
  66.500	 298.800	    87.700	    32.200
  66.500	 302.400	    84.400	    32.200
  66.500	 306.000	    87.400	    32.200
  66.500	 309.600	    85.400	    32.200
  66.500	 313.200	    85.700	    32.200
  66.500	 316.800	    90.000	    32.200
  66.500	 320.400	    91.500	    32.200
  66.500	 324.000	    83.000	    32.200
  66.500	 327.600	    86.900	    32.200
  66.500	 331.200	    83.700	    32.200
  66.500	 334.800	    80.000	    32.200
  66.500	 338.400	    82.400	    32.200
  66.500	 342.000	    80.800	    32.200
  66.500	 345.600	    84.300	    32.200
  66.500	 349.200	    75.000	    32.200
  66.500	 352.800	    75.100	    32.200
  66.500	 356.400	    73.700	    32.200
  66.500	 360.000	    75.800	    32.200
  70.000	   0.000	    75.200	    27.600
  70.000	   3.600	    69.900	    27.600
  70.000	   7.200	    72.600	    27.600
  70.000	  10.800	    64.200	    27.600
  70.000	  14.400	    67.000	    27.600
  70.000	  18.000	    67.100	    27.600
  70.000	  21.600	    65.400	    27.600
  70.000	  25.200	    68.800	    27.600
  70.000	  28.800	    64.200	    27.600
  70.000	  32.400	    64.400	    27.600
  70.000	  36.000	    69.300	    27.600
  70.000	  39.600	    61.100	    27.600
  70.000	  43.200	    64.400	    27.600
  70.000	  46.800	    64.900	    27.600
  70.000	  50.400	    69.300	    27.600
  70.000	  54.000	    69.600	    27.600
  70.000	  57.600	    64.100	    27.600
  70.000	  61.200	    71.900	    27.600
  70.000	  64.800	    73.400	    27.600
  70.000	  68.400	    78.800	    27.600
  70.000	  72.000	    77.200	    27.600
  70.000	  75.600	    75.000	    27.600
  70.000	  79.200	    84.600	    27.600
  70.000	  82.800	    89.800	    27.600
  70.000	  86.400	    91.900	    27.600
  70.000	  90.000	    88.400	    27.600
  70.000	  93.600	    94.100	    27.600
  70.000	  97.200	    91.300	    27.600
  70.000	 100.800	   100.400	    27.600
  70.000	 104.400	    97.900	    27.600
  70.000	 108.000	    94.700	    27.600
  70.000	 111.600	    91.400	    27.600
  70.000	 115.200	    93.500	    27.600
  70.000	 118.800	    93.000	    27.600
  70.000	 122.400	    89.000	    27.600
  70.000	 126.000	    85.300	    27.600
  70.000	 129.600	    90.600	    27.600
  70.000	 133.200	    80.400	    27.600
  70.000	 136.800	    81.800	    27.600
  70.000	 140.400	    81.700	    27.600
  70.000	 144.000	    78.100	    27.600
  70.000	 147.600	    82.200	    27.600
  70.000	 151.200	    80.100	    27.600
  70.000	 154.800	    75.100	    27.600
  70.000	 158.400	    78.700	    27.600
  70.000	 162.000	    70.800	    27.600
  70.000	 165.600	    74.100	    27.600
  70.000	 169.200	    64.600	    27.600
  70.000	 172.800	    68.200	    27.600
  70.000	 176.400	    67.300	    27.600
  70.000	 180.000	    69.100	    27.600
  70.000	 183.600	    69.600	    27.600
  70.000	 187.200	    70.100	    27.600
  70.000	 190.800	    62.500	    27.600
  70.000	 194.400	    70.100	    27.600
  70.000	 198.000	    63.800	    27.600
  70.000	 201.600	    63.700	    27.600
  70.000	 205.200	    63.600	    27.600
  70.000	 208.800	    64.100	    27.600
  70.000	 212.400	    67.500	    27.600
  70.000	 216.000	    64.400	    27.600
  70.000	 219.600	    63.400	    27.600
  70.000	 223.200	    72.700	    27.600
  70.000	 226.800	    67.200	    27.600
  70.000	 230.400	    65.100	    27.600
  70.000	 234.000	    71.300	    27.600
  70.000	 237.600	    70.000	    27.600
  70.000	 241.200	    68.400	    27.600
  70.000	 244.800	    70.000	    27.600
  70.000	 248.400	    73.400	    27.600
  70.000	 252.000	    72.100	    27.600
  70.000	 255.600	    74.700	    27.600
  70.000	 259.200	    74.300	    27.600
  70.000	 262.800	    78.600	    27.600
  70.000	 266.400	    82.600	    27.600
  70.000	 270.000	    80.800	    27.600
  70.000	 273.600	    80.900	    27.600
  70.000	 277.200	    79.700	    27.600
  70.000	 280.800	    87.000	    27.600
  70.000	 284.400	    84.300	    27.600
  70.000	 288.000	    87.500	    27.600
  70.000	 291.600	    89.100	    27.600
  70.000	 295.200	    84.900	    27.600
  70.000	 298.800	    86.900	    27.600
  70.000	 302.400	    93.400	    27.600
  70.000	 306.000	    94.400	    27.600
  70.000	 309.600	    93.900	    27.600
  70.000	 313.200	    92.100	    27.600
  70.000	 316.800	    94.100	    27.600
  70.000	 320.400	    96.100	    27.600
  70.000	 324.000	    89.100	    27.600
  70.000	 327.600	    86.000	    27.600
  70.000	 331.200	    87.400	    27.600
  70.000	 334.800	    83.200	    27.600
  70.000	 338.400	    84.800	    27.600
  70.000	 342.000	    78.900	    27.600
  70.000	 345.600	    77.600	    27.600
  70.000	 349.200	    73.200	    27.600
  70.000	 352.800	    77.300	    27.600
  70.000	 356.400	    71.200	    27.600
  70.000	 360.000	    69.500	    27.600
